File: 62522001-to1-t_R.uxd
; (content of file E:\past\WYW\20230719ZHUANWENJIANGESHI\62522001-to1-t_R.raw)
_FILEVERSION = 2
_SAMPLE =
_+SAMPLE =
_SITE = China
_USER = Administrator
_GONIOMETER_CODE = 21
; Goniometer : D8 theta/theta, stage : Unknown
_SAMPLE_CHANGER_CODE = 0
_ATTACHMENTS_CODE = 0
_GONIOMETER_RADIUS = 250
_FIXED_DIVSLIT = 0.6
_FIXED_SAMPLESLIT = 0
_FIXED_DETSLIT = 24.08
_MONOCHROMATOR = 0
; Incident beam monochromator : None
_THIN_FILM = N
_BETA_FILTER = N
_FIXED_ANTISLIT = 15.17
_ANALYZER_CODE = 1
; Received beam analyzer : Graphite
_DATEMEASURED = "23-May-2023 16:31:50"
_WL_UNIT = A
_WL1 = 1.5406
_WL2 = 1.54439
_WL3 = 1.39222
_WLRATIO = 0.5
_ANODE = Cu

; Data for range 1
_DRIVE = PHI
_STEPTIME = 0.5
_STEPSIZE = 5
_STEPMODE = C
_START = 0
_THETA = 16.0115
_2THETA = 32.023
_KHI = 0
_PHI = 0
_X = 0
_Y = 0
_Z = 0
_DIVERGENCE = 0.2
_ANTISCATTER = 0.2
_DETECTOR = 1
; Detector type : Scintillation counter
_HV = 670
_GAIN = 80
_LLD = 0.69
_ULD = 1.768
_DETECTORSLIT = out
_AUX1 = 0
_AUX2 = 0
_AUX3 = 0
_TIMESTARTED = 10
_TEMP_RATE = 0
_TEMP_DELAY = 0
_KV = 40
_MA = 40
_RANGE_WL = 1.5406
_3DPLANE = 0
_V4_COUNTERS_MASK = 1
_V4_DRIVES_MASK = 0
_V4_ENCODERS_MASK = 0
_2THETACOUNTS = 1
; PHI  Cnt1_D1
   0.0000        203
   5.0000        183
  10.0000        193
  15.0000        211
  20.0000        208
  25.0000        213
  30.0000        209
  35.0000        197
  40.0000        175
  45.0000        177
  50.0000        201
  55.0000        175
  60.0000        180
  65.0000        187
  70.0000        185
  75.0000        167
  80.0000        177
  85.0000        164
  90.0000        178
  95.0000        183
 100.0000        182
 105.0000        172
 110.0000        194
 115.0000        196
 120.0000        168
 125.0000        210
 130.0000        225
 135.0000        135
 140.0000        167
 145.0000        179
 150.0000        176
 155.0000        152
 160.0000        161
 165.0000        188
 170.0000        191
 175.0000        189
 180.0000        187
 185.0000        189
 190.0000        216
 195.0000        183
 200.0000        160
 205.0000        198
 210.0000        211
 215.0000        193
 220.0000        208
 225.0000        204
 230.0000        222
 235.0000        180
 240.0000        219
 245.0000        220
 250.0000        229
 255.0000        226
 260.0000        192
 265.0000        224
 270.0000        251
 275.0000        230
 280.0000        215
 285.0000        212
 290.0000        205
 295.0000        252
 300.0000        209
 305.0000        211
 310.0000        197
 315.0000        199
 320.0000        198
 325.0000        218
 330.0000        220
 335.0000        188
 340.0000        213
 345.0000        215
 350.0000        206
 355.0000        186

; Data for range 2
_DRIVE = PHI
_STEPTIME = 0.5
_STEPSIZE = 5
_STEPMODE = C
_START = 0
_THETA = 16.0115
_2THETA = 32.023
_KHI = 5
_PHI = 0
_X = 0
_Y = 0
_Z = 0
_DIVERGENCE = 0.2
_ANTISCATTER = 0.2
_DETECTOR = 1
; Detector type : Scintillation counter
_HV = 670
_GAIN = 80
_LLD = 0.69
_ULD = 1.768
_DETECTORSLIT = out
_AUX1 = 0
_AUX2 = 0
_AUX3 = 0
_TIMESTARTED = 55
_TEMP_RATE = 0
_TEMP_DELAY = 0
_KV = 40
_MA = 40
_RANGE_WL = 1.5406
_3DPLANE = 0
_V4_COUNTERS_MASK = 1
_V4_DRIVES_MASK = 0
_V4_ENCODERS_MASK = 0
_2THETACOUNTS = 1
; PHI  Cnt1_D1
   0.0000        223
   5.0000        194
  10.0000        205
  15.0000        229
  20.0000        201
  25.0000        189
  30.0000        185
  35.0000        195
  40.0000        193
  45.0000        196
  50.0000        164
  55.0000        194
  60.0000        181
  65.0000        219
  70.0000        176
  75.0000        185
  80.0000        197
  85.0000        188
  90.0000        205
  95.0000        174
 100.0000        201
 105.0000        192
 110.0000        174
 115.0000        193
 120.0000        179
 125.0000        199
 130.0000        190
 135.0000        183
 140.0000        188
 145.0000        203
 150.0000        159
 155.0000        199
 160.0000        183
 165.0000        200
 170.0000        166
 175.0000        195
 180.0000        173
 185.0000        216
 190.0000        183
 195.0000        205
 200.0000        214
 205.0000        208
 210.0000        221
 215.0000        182
 220.0000        218
 225.0000        234
 230.0000        227
 235.0000        231
 240.0000        217
 245.0000        226
 250.0000        243
 255.0000        245
 260.0000        259
 265.0000        227
 270.0000        235
 275.0000        233
 280.0000        210
 285.0000        229
 290.0000        218
 295.0000        256
 300.0000        213
 305.0000        241
 310.0000        230
 315.0000        242
 320.0000        210
 325.0000        217
 330.0000        247
 335.0000        212
 340.0000        196
 345.0000        208
 350.0000        209
 355.0000        222

; Data for range 3
_DRIVE = PHI
_STEPTIME = 0.5
_STEPSIZE = 5
_STEPMODE = C
_START = 0
_THETA = 16.0115
_2THETA = 32.023
_KHI = 10
_PHI = 0
_X = 0
_Y = 0
_Z = 0
_DIVERGENCE = 0.2
_ANTISCATTER = 0.2
_DETECTOR = 1
; Detector type : Scintillation counter
_HV = 670
_GAIN = 80
_LLD = 0.69
_ULD = 1.768
_DETECTORSLIT = out
_AUX1 = 0
_AUX2 = 0
_AUX3 = 0
_TIMESTARTED = 100
_TEMP_RATE = 0
_TEMP_DELAY = 0
_KV = 40
_MA = 40
_RANGE_WL = 1.5406
_3DPLANE = 0
_V4_COUNTERS_MASK = 1
_V4_DRIVES_MASK = 0
_V4_ENCODERS_MASK = 0
_2THETACOUNTS = 1
; PHI  Cnt1_D1
   0.0000        198
   5.0000        200
  10.0000        192
  15.0000        184
  20.0000        217
  25.0000        189
  30.0000        191
  35.0000        190
  40.0000        205
  45.0000        208
  50.0000        211
  55.0000        208
  60.0000        237
  65.0000        198
  70.0000        199
  75.0000        186
  80.0000        198
  85.0000        207
  90.0000        228
  95.0000        193
 100.0000        263
 105.0000        208
 110.0000        243
 115.0000        205
 120.0000        187
 125.0000        203
 130.0000        191
 135.0000        210
 140.0000        180
 145.0000        160
 150.0000        191
 155.0000        174
 160.0000        205
 165.0000        202
 170.0000        199
 175.0000        165
 180.0000        195
 185.0000        185
 190.0000        181
 195.0000        226
 200.0000        178
 205.0000        225
 210.0000        239
 215.0000        212
 220.0000        229
 225.0000        260
 230.0000        216
 235.0000        239
 240.0000        235
 245.0000        242
 250.0000        251
 255.0000        250
 260.0000        275
 265.0000        293
 270.0000        289
 275.0000        277
 280.0000        282
 285.0000        246
 290.0000        265
 295.0000        275
 300.0000        257
 305.0000        270
 310.0000        234
 315.0000        267
 320.0000        246
 325.0000        235
 330.0000        226
 335.0000        248
 340.0000        225
 345.0000        234
 350.0000        198
 355.0000        187

; Data for range 4
_DRIVE = PHI
_STEPTIME = 0.5
_STEPSIZE = 5
_STEPMODE = C
_START = 0
_THETA = 16.0115
_2THETA = 32.023
_KHI = 15
_PHI = 0
_X = 0
_Y = 0
_Z = 0
_DIVERGENCE = 0.2
_ANTISCATTER = 0.2
_DETECTOR = 1
; Detector type : Scintillation counter
_HV = 670
_GAIN = 80
_LLD = 0.69
_ULD = 1.768
_DETECTORSLIT = out
_AUX1 = 0
_AUX2 = 0
_AUX3 = 0
_TIMESTARTED = 145
_TEMP_RATE = 0
_TEMP_DELAY = 0
_KV = 40
_MA = 40
_RANGE_WL = 1.5406
_3DPLANE = 0
_V4_COUNTERS_MASK = 1
_V4_DRIVES_MASK = 0
_V4_ENCODERS_MASK = 0
_2THETACOUNTS = 1
; PHI  Cnt1_D1
   0.0000        180
   5.0000        201
  10.0000        182
  15.0000        181
  20.0000        164
  25.0000        184
  30.0000        206
  35.0000        171
  40.0000        202
  45.0000        203
  50.0000        236
  55.0000        236
  60.0000        239
  65.0000        215
  70.0000        244
  75.0000        281
  80.0000        257
  85.0000        269
  90.0000        286
  95.0000        289
 100.0000        251
 105.0000        268
 110.0000        245
 115.0000        260
 120.0000        270
 125.0000        263
 130.0000        236
 135.0000        221
 140.0000        216
 145.0000        206
 150.0000        212
 155.0000        185
 160.0000        191
 165.0000        194
 170.0000        180
 175.0000        212
 180.0000        181
 185.0000        220
 190.0000        178
 195.0000        187
 200.0000        197
 205.0000        221
 210.0000        250
 215.0000        218
 220.0000        252
 225.0000        232
 230.0000        219
 235.0000        262
 240.0000        245
 245.0000        267
 250.0000        249
 255.0000        292
 260.0000        269
 265.0000        295
 270.0000        366
 275.0000        305
 280.0000        344
 285.0000        328
 290.0000        320
 295.0000        314
 300.0000        325
 305.0000        301
 310.0000        289
 315.0000        281
 320.0000        264
 325.0000        258
 330.0000        245
 335.0000        243
 340.0000        215
 345.0000        241
 350.0000        187
 355.0000        207

; Data for range 5
_DRIVE = PHI
_STEPTIME = 0.5
_STEPSIZE = 5
_STEPMODE = C
_START = 0
_THETA = 16.0115
_2THETA = 32.023
_KHI = 20
_PHI = 0
_X = 0
_Y = 0
_Z = 0
_DIVERGENCE = 0.2
_ANTISCATTER = 0.2
_DETECTOR = 1
; Detector type : Scintillation counter
_HV = 670
_GAIN = 80
_LLD = 0.69
_ULD = 1.768
_DETECTORSLIT = out
_AUX1 = 0
_AUX2 = 0
_AUX3 = 0
_TIMESTARTED = 190
_TEMP_RATE = 0
_TEMP_DELAY = 0
_KV = 40
_MA = 40
_RANGE_WL = 1.5406
_3DPLANE = 0
_V4_COUNTERS_MASK = 1
_V4_DRIVES_MASK = 0
_V4_ENCODERS_MASK = 0
_2THETACOUNTS = 1
; PHI  Cnt1_D1
   0.0000        172
   5.0000        178
  10.0000        170
  15.0000        160
  20.0000        182
  25.0000        186
  30.0000        193
  35.0000        191
  40.0000        215
  45.0000        271
  50.0000        268
  55.0000        246
  60.0000        260
  65.0000        305
  70.0000        283
  75.0000        370
  80.0000        341
  85.0000        343
  90.0000        349
  95.0000        318
 100.0000        338
 105.0000        337
 110.0000        346
 115.0000        371
 120.0000        301
 125.0000        323
 130.0000        324
 135.0000        292
 140.0000        267
 145.0000        247
 150.0000        222
 155.0000        197
 160.0000        207
 165.0000        191
 170.0000        184
 175.0000        188
 180.0000        173
 185.0000        164
 190.0000        193
 195.0000        165
 200.0000        210
 205.0000        215
 210.0000        206
 215.0000        213
 220.0000        227
 225.0000        237
 230.0000        267
 235.0000        289
 240.0000        330
 245.0000        301
 250.0000        319
 255.0000        310
 260.0000        398
 265.0000        437
 270.0000        400
 275.0000        391
 280.0000        409
 285.0000        412
 290.0000        402
 295.0000        396
 300.0000        390
 305.0000        360
 310.0000        356
 315.0000        333
 320.0000        318
 325.0000        302
 330.0000        253
 335.0000        218
 340.0000        213
 345.0000        221
 350.0000        189
 355.0000        199

; Data for range 6
_DRIVE = PHI
_STEPTIME = 0.5
_STEPSIZE = 5
_STEPMODE = C
_START = 0
_THETA = 16.0115
_2THETA = 32.023
_KHI = 25
_PHI = 0
_X = 0
_Y = 0
_Z = 0
_DIVERGENCE = 0.2
_ANTISCATTER = 0.2
_DETECTOR = 1
; Detector type : Scintillation counter
_HV = 670
_GAIN = 80
_LLD = 0.69
_ULD = 1.768
_DETECTORSLIT = out
_AUX1 = 0
_AUX2 = 0
_AUX3 = 0
_TIMESTARTED = 234
_TEMP_RATE = 0
_TEMP_DELAY = 0
_KV = 40
_MA = 40
_RANGE_WL = 1.5406
_3DPLANE = 0
_V4_COUNTERS_MASK = 1
_V4_DRIVES_MASK = 0
_V4_ENCODERS_MASK = 0
_2THETACOUNTS = 1
; PHI  Cnt1_D1
   0.0000        179
   5.0000        167
  10.0000        162
  15.0000        217
  20.0000        172
  25.0000        173
  30.0000        210
  35.0000        218
  40.0000        244
  45.0000        290
  50.0000        310
  55.0000        337
  60.0000        375
  65.0000        410
  70.0000        488
  75.0000        425
  80.0000        498
  85.0000        501
  90.0000        486
  95.0000        472
 100.0000        519
 105.0000        482
 110.0000        515
 115.0000        469
 120.0000        465
 125.0000        426
 130.0000        396
 135.0000        376
 140.0000        329
 145.0000        303
 150.0000        260
 155.0000        225
 160.0000        222
 165.0000        191
 170.0000        194
 175.0000        184
 180.0000        171
 185.0000        199
 190.0000        167
 195.0000        175
 200.0000        184
 205.0000        208
 210.0000        220
 215.0000        234
 220.0000        272
 225.0000        283
 230.0000        301
 235.0000        353
 240.0000        384
 245.0000        380
 250.0000        447
 255.0000        484
 260.0000        512
 265.0000        574
 270.0000        557
 275.0000        540
 280.0000        581
 285.0000        546
 290.0000        554
 295.0000        535
 300.0000        544
 305.0000        458
 310.0000        452
 315.0000        428
 320.0000        371
 325.0000        329
 330.0000        314
 335.0000        252
 340.0000        230
 345.0000        198
 350.0000        178
 355.0000        168

; Data for range 7
_DRIVE = PHI
_STEPTIME = 0.5
_STEPSIZE = 5
_STEPMODE = C
_START = 0
_THETA = 16.0115
_2THETA = 32.023
_KHI = 30
_PHI = 0
_X = 0
_Y = 0
_Z = 0
_DIVERGENCE = 0.2
_ANTISCATTER = 0.2
_DETECTOR = 1
; Detector type : Scintillation counter
_HV = 670
_GAIN = 80
_LLD = 0.69
_ULD = 1.768
_DETECTORSLIT = out
_AUX1 = 0
_AUX2 = 0
_AUX3 = 0
_TIMESTARTED = 279
_TEMP_RATE = 0
_TEMP_DELAY = 0
_KV = 40
_MA = 40
_RANGE_WL = 1.5406
_3DPLANE = 0
_V4_COUNTERS_MASK = 1
_V4_DRIVES_MASK = 0
_V4_ENCODERS_MASK = 0
_2THETACOUNTS = 1
; PHI  Cnt1_D1
   0.0000        144
   5.0000        156
  10.0000        166
  15.0000        165
  20.0000        161
  25.0000        169
  30.0000        223
  35.0000        268
  40.0000        307
  45.0000        372
  50.0000        417
  55.0000        507
  60.0000        516
  65.0000        636
  70.0000        634
  75.0000        575
  80.0000        639
  85.0000        610
  90.0000        606
  95.0000        605
 100.0000        569
 105.0000        628
 110.0000        609
 115.0000        603
 120.0000        578
 125.0000        549
 130.0000        569
 135.0000        467
 140.0000        464
 145.0000        310
 150.0000        284
 155.0000        273
 160.0000        210
 165.0000        222
 170.0000        177
 175.0000        163
 180.0000        172
 185.0000        170
 190.0000        146
 195.0000        172
 200.0000        151
 205.0000        197
 210.0000        206
 215.0000        249
 220.0000        305
 225.0000        350
 230.0000        394
 235.0000        457
 240.0000        554
 245.0000        617
 250.0000        614
 255.0000        636
 260.0000        635
 265.0000        676
 270.0000        620
 275.0000        669
 280.0000        680
 285.0000        680
 290.0000        750
 295.0000        720
 300.0000        710
 305.0000        640
 310.0000        635
 315.0000        585
 320.0000        499
 325.0000        451
 330.0000        371
 335.0000        306
 340.0000        244
 345.0000        207
 350.0000        180
 355.0000        168

; Data for range 8
_DRIVE = PHI
_STEPTIME = 0.5
_STEPSIZE = 5
_STEPMODE = C
_START = 0
_THETA = 16.0115
_2THETA = 32.023
_KHI = 35
_PHI = 0
_X = 0
_Y = 0
_Z = 0
_DIVERGENCE = 0.2
_ANTISCATTER = 0.2
_DETECTOR = 1
; Detector type : Scintillation counter
_HV = 670
_GAIN = 80
_LLD = 0.69
_ULD = 1.768
_DETECTORSLIT = out
_AUX1 = 0
_AUX2 = 0
_AUX3 = 0
_TIMESTARTED = 324
_TEMP_RATE = 0
_TEMP_DELAY = 0
_KV = 40
_MA = 40
_RANGE_WL = 1.5406
_3DPLANE = 0
_V4_COUNTERS_MASK = 1
_V4_DRIVES_MASK = 0
_V4_ENCODERS_MASK = 0
_2THETACOUNTS = 1
; PHI  Cnt1_D1
   0.0000        139
   5.0000        136
  10.0000        136
  15.0000        142
  20.0000        158
  25.0000        177
  30.0000        238
  35.0000        286
  40.0000        349
  45.0000        450
  50.0000        596
  55.0000        663
  60.0000        682
  65.0000        701
  70.0000        668
  75.0000        608
  80.0000        554
  85.0000        469
  90.0000        460
  95.0000        479
 100.0000        416
 105.0000        489
 110.0000        512
 115.0000        539
 120.0000        597
 125.0000        616
 130.0000        646
 135.0000        638
 140.0000        591
 145.0000        458
 150.0000        391
 155.0000        297
 160.0000        240
 165.0000        187
 170.0000        144
 175.0000        132
 180.0000        140
 185.0000        126
 190.0000        154
 195.0000        146
 200.0000        139
 205.0000        196
 210.0000        211
 215.0000        290
 220.0000        364
 225.0000        460
 230.0000        489
 235.0000        615
 240.0000        638
 245.0000        637
 250.0000        665
 255.0000        587
 260.0000        529
 265.0000        521
 270.0000        443
 275.0000        485
 280.0000        487
 285.0000        561
 290.0000        536
 295.0000        667
 300.0000        702
 305.0000        770
 310.0000        764
 315.0000        794
 320.0000        742
 325.0000        516
 330.0000        421
 335.0000        321
 340.0000        247
 345.0000        173
 350.0000        161
 355.0000        141

; Data for range 9
_DRIVE = PHI
_STEPTIME = 0.5
_STEPSIZE = 5
_STEPMODE = C
_START = 0
_THETA = 16.0115
_2THETA = 32.023
_KHI = 40
_PHI = 0
_X = 0
_Y = 0
_Z = 0
_DIVERGENCE = 0.2
_ANTISCATTER = 0.2
_DETECTOR = 1
; Detector type : Scintillation counter
_HV = 670
_GAIN = 80
_LLD = 0.69
_ULD = 1.768
_DETECTORSLIT = out
_AUX1 = 0
_AUX2 = 0
_AUX3 = 0
_TIMESTARTED = 369
_TEMP_RATE = 0
_TEMP_DELAY = 0
_KV = 40
_MA = 40
_RANGE_WL = 1.5406
_3DPLANE = 0
_V4_COUNTERS_MASK = 1
_V4_DRIVES_MASK = 0
_V4_ENCODERS_MASK = 0
_2THETACOUNTS = 1
; PHI  Cnt1_D1
   0.0000        140
   5.0000        127
  10.0000        122
  15.0000        119
  20.0000        161
  25.0000        156
  30.0000        218
  35.0000        283
  40.0000        451
  45.0000        614
  50.0000        715
  55.0000        807
  60.0000        696
  65.0000        604
  70.0000        466
  75.0000        389
  80.0000        333
  85.0000        322
  90.0000        325
  95.0000        271
 100.0000        281
 105.0000        260
 110.0000        313
 115.0000        362
 120.0000        413
 125.0000        529
 130.0000        599
 135.0000        659
 140.0000        740
 145.0000        615
 150.0000        455
 155.0000        328
 160.0000        239
 165.0000        183
 170.0000        164
 175.0000        135
 180.0000        145
 185.0000        122
 190.0000        119
 195.0000        121
 200.0000        140
 205.0000        186
 210.0000        246
 215.0000        306
 220.0000        437
 225.0000        560
 230.0000        740
 235.0000        730
 240.0000        635
 245.0000        656
 250.0000        474
 255.0000        390
 260.0000        341
 265.0000        325
 270.0000        238
 275.0000        329
 280.0000        292
 285.0000        285
 290.0000        356
 295.0000        409
 300.0000        487
 305.0000        588
 310.0000        757
 315.0000        860
 320.0000        769
 325.0000        740
 330.0000        541
 335.0000        362
 340.0000        229
 345.0000        168
 350.0000        154
 355.0000        137

; Data for range 10
_DRIVE = PHI
_STEPTIME = 0.5
_STEPSIZE = 5
_STEPMODE = C
_START = 0
_THETA = 16.0115
_2THETA = 32.023
_KHI = 45
_PHI = 0
_X = 0
_Y = 0
_Z = 0
_DIVERGENCE = 0.2
_ANTISCATTER = 0.2
_DETECTOR = 1
; Detector type : Scintillation counter
_HV = 670
_GAIN = 80
_LLD = 0.69
_ULD = 1.768
_DETECTORSLIT = out
_AUX1 = 0
_AUX2 = 0
_AUX3 = 0
_TIMESTARTED = 414
_TEMP_RATE = 0
_TEMP_DELAY = 0
_KV = 40
_MA = 40
_RANGE_WL = 1.5406
_3DPLANE = 0
_V4_COUNTERS_MASK = 1
_V4_DRIVES_MASK = 0
_V4_ENCODERS_MASK = 0
_2THETACOUNTS = 1
; PHI  Cnt1_D1
   0.0000         92
   5.0000        131
  10.0000        120
  15.0000        111
  20.0000        117
  25.0000        175
  30.0000        215
  35.0000        354
  40.0000        647
  45.0000        795
  50.0000        882
  55.0000        720
  60.0000        561
  65.0000        402
  70.0000        323
  75.0000        312
  80.0000        218
  85.0000        228
  90.0000        202
  95.0000        205
 100.0000        193
 105.0000        197
 110.0000        222
 115.0000        238
 120.0000        278
 125.0000        363
 130.0000        450
 135.0000        618
 140.0000        719
 145.0000        749
 150.0000        564
 155.0000        381
 160.0000        248
 165.0000        162
 170.0000        145
 175.0000        102
 180.0000        113
 185.0000        112
 190.0000        117
 195.0000        117
 200.0000        135
 205.0000        172
 210.0000        206
 215.0000        363
 220.0000        562
 225.0000        755
 230.0000        791
 235.0000        651
 240.0000        548
 245.0000        405
 250.0000        283
 255.0000        270
 260.0000        227
 265.0000        214
 270.0000        213
 275.0000        209
 280.0000        210
 285.0000        201
 290.0000        248
 295.0000        279
 300.0000        317
 305.0000        381
 310.0000        566
 315.0000        738
 320.0000        876
 325.0000        928
 330.0000        728
 335.0000        431
 340.0000        237
 345.0000        161
 350.0000        131
 355.0000        140

; Data for range 11
_DRIVE = PHI
_STEPTIME = 0.5
_STEPSIZE = 5
_STEPMODE = C
_START = 0
_THETA = 16.0115
_2THETA = 32.023
_KHI = 50
_PHI = 0
_X = 0
_Y = 0
_Z = 0
_DIVERGENCE = 0.2
_ANTISCATTER = 0.2
_DETECTOR = 1
; Detector type : Scintillation counter
_HV = 670
_GAIN = 80
_LLD = 0.69
_ULD = 1.768
_DETECTORSLIT = out
_AUX1 = 0
_AUX2 = 0
_AUX3 = 0
_TIMESTARTED = 458
_TEMP_RATE = 0
_TEMP_DELAY = 0
_KV = 40
_MA = 40
_RANGE_WL = 1.5406
_3DPLANE = 0
_V4_COUNTERS_MASK = 1
_V4_DRIVES_MASK = 0
_V4_ENCODERS_MASK = 0
_2THETACOUNTS = 1
; PHI  Cnt1_D1
   0.0000        110
   5.0000        104
  10.0000        101
  15.0000        117
  20.0000        129
  25.0000        139
  30.0000        248
  35.0000        455
  40.0000        799
  45.0000       1027
  50.0000        822
  55.0000        569
  60.0000        434
  65.0000        307
  70.0000        253
  75.0000        224
  80.0000        171
  85.0000        157
  90.0000        183
  95.0000        185
 100.0000        167
 105.0000        156
 110.0000        159
 115.0000        160
 120.0000        207
 125.0000        231
 130.0000        316
 135.0000        462
 140.0000        629
 145.0000        817
 150.0000        700
 155.0000        479
 160.0000        282
 165.0000        169
 170.0000        124
 175.0000        101
 180.0000        100
 185.0000        106
 190.0000         93
 195.0000        102
 200.0000        109
 205.0000        135
 210.0000        230
 215.0000        402
 220.0000        679
 225.0000        832
 230.0000        772
 235.0000        496
 240.0000        384
 245.0000        280
 250.0000        200
 255.0000        216
 260.0000        167
 265.0000        187
 270.0000        172
 275.0000        175
 280.0000        206
 285.0000        173
 290.0000        205
 295.0000        177
 300.0000        196
 305.0000        284
 310.0000        318
 315.0000        503
 320.0000        806
 325.0000       1042
 330.0000        936
 335.0000        534
 340.0000        252
 345.0000        151
 350.0000        110
 355.0000        106

; Data for range 12
_DRIVE = PHI
_STEPTIME = 0.5
_STEPSIZE = 5
_STEPMODE = C
_START = 0
_THETA = 16.0115
_2THETA = 32.023
_KHI = 55
_PHI = 0
_X = 0
_Y = 0
_Z = 0
_DIVERGENCE = 0.2
_ANTISCATTER = 0.2
_DETECTOR = 1
; Detector type : Scintillation counter
_HV = 670
_GAIN = 80
_LLD = 0.69
_ULD = 1.768
_DETECTORSLIT = out
_AUX1 = 0
_AUX2 = 0
_AUX3 = 0
_TIMESTARTED = 503
_TEMP_RATE = 0
_TEMP_DELAY = 0
_KV = 40
_MA = 40
_RANGE_WL = 1.5406
_3DPLANE = 0
_V4_COUNTERS_MASK = 1
_V4_DRIVES_MASK = 0
_V4_ENCODERS_MASK = 0
_2THETACOUNTS = 1
; PHI  Cnt1_D1
   0.0000         96
   5.0000         97
  10.0000         86
  15.0000         84
  20.0000        112
  25.0000        148
  30.0000        246
  35.0000        548
  40.0000        903
  45.0000        974
  50.0000        682
  55.0000        409
  60.0000        297
  65.0000        236
  70.0000        212
  75.0000        161
  80.0000        161
  85.0000        160
  90.0000        152
  95.0000        157
 100.0000        149
 105.0000        152
 110.0000        125
 115.0000        131
 120.0000        142
 125.0000        171
 130.0000        197
 135.0000        289
 140.0000        469
 145.0000        752
 150.0000        877
 155.0000        505
 160.0000        252
 165.0000        120
 170.0000        108
 175.0000         68
 180.0000         83
 185.0000         74
 190.0000         93
 195.0000         89
 200.0000         87
 205.0000        140
 210.0000        263
 215.0000        522
 220.0000        898
 225.0000        828
 230.0000        607
 235.0000        359
 240.0000        263
 245.0000        199
 250.0000        173
 255.0000        181
 260.0000        180
 265.0000        207
 270.0000        188
 275.0000        174
 280.0000        178
 285.0000        169
 290.0000        164
 295.0000        157
 300.0000        157
 305.0000        182
 310.0000        214
 315.0000        304
 320.0000        559
 325.0000        933
 330.0000       1011
 335.0000        607
 340.0000        237
 345.0000        116
 350.0000         78
 355.0000         95

; Data for range 13
_DRIVE = PHI
_STEPTIME = 0.5
_STEPSIZE = 5
_STEPMODE = C
_START = 0
_THETA = 16.0115
_2THETA = 32.023
_KHI = 60
_PHI = 0
_X = 0
_Y = 0
_Z = 0
_DIVERGENCE = 0.2
_ANTISCATTER = 0.2
_DETECTOR = 1
; Detector type : Scintillation counter
_HV = 670
_GAIN = 80
_LLD = 0.69
_ULD = 1.768
_DETECTORSLIT = out
_AUX1 = 0
_AUX2 = 0
_AUX3 = 0
_TIMESTARTED = 548
_TEMP_RATE = 0
_TEMP_DELAY = 0
_KV = 40
_MA = 40
_RANGE_WL = 1.5406
_3DPLANE = 0
_V4_COUNTERS_MASK = 1
_V4_DRIVES_MASK = 0
_V4_ENCODERS_MASK = 0
_2THETACOUNTS = 1
; PHI  Cnt1_D1
   0.0000         82
   5.0000         67
  10.0000         66
  15.0000         85
  20.0000         81
  25.0000        132
  30.0000        299
  35.0000        682
  40.0000       1076
  45.0000        827
  50.0000        456
  55.0000        253
  60.0000        179
  65.0000        138
  70.0000        131
  75.0000        147
  80.0000        149
  85.0000        143
  90.0000        155
  95.0000        184
 100.0000        171
 105.0000        123
 110.0000        124
 115.0000        125
 120.0000        119
 125.0000        132
 130.0000        146
 135.0000        172
 140.0000        308
 145.0000        570
 150.0000        886
 155.0000        609
 160.0000        267
 165.0000         91
 170.0000         83
 175.0000         75
 180.0000         66
 185.0000         72
 190.0000         75
 195.0000         71
 200.0000         93
 205.0000        113
 210.0000        253
 215.0000        655
 220.0000        918
 225.0000        693
 230.0000        420
 235.0000        241
 240.0000        188
 245.0000        159
 250.0000        166
 255.0000        156
 260.0000        160
 265.0000        160
 270.0000        176
 275.0000        193
 280.0000        157
 285.0000        161
 290.0000        129
 295.0000        129
 300.0000        130
 305.0000        124
 310.0000        163
 315.0000        200
 320.0000        346
 325.0000        738
 330.0000        969
 335.0000        741
 340.0000        265
 345.0000        135
 350.0000         85
 355.0000         89

; Data for range 14
_DRIVE = PHI
_STEPTIME = 0.5
_STEPSIZE = 5
_STEPMODE = C
_START = 0
_THETA = 16.0115
_2THETA = 32.023
_KHI = 65
_PHI = 0
_X = 0
_Y = 0
_Z = 0
_DIVERGENCE = 0.2
_ANTISCATTER = 0.2
_DETECTOR = 1
; Detector type : Scintillation counter
_HV = 670
_GAIN = 80
_LLD = 0.69
_ULD = 1.768
_DETECTORSLIT = out
_AUX1 = 0
_AUX2 = 0
_AUX3 = 0
_TIMESTARTED = 592
_TEMP_RATE = 0
_TEMP_DELAY = 0
_KV = 40
_MA = 40
_RANGE_WL = 1.5406
_3DPLANE = 0
_V4_COUNTERS_MASK = 1
_V4_DRIVES_MASK = 0
_V4_ENCODERS_MASK = 0
_2THETACOUNTS = 1
; PHI  Cnt1_D1
   0.0000         60
   5.0000         79
  10.0000         55
  15.0000         61
  20.0000         83
  25.0000        102
  30.0000        270
  35.0000        743
  40.0000        979
  45.0000        523
  50.0000        251
  55.0000        141
  60.0000        117
  65.0000        124
  70.0000        122
  75.0000        129
  80.0000        127
  85.0000        149
  90.0000        184
  95.0000        168
 100.0000        190
 105.0000        142
 110.0000        144
 115.0000         85
 120.0000        110
 125.0000        103
 130.0000        115
 135.0000        119
 140.0000        159
 145.0000        423
 150.0000        760
 155.0000        699
 160.0000        280
 165.0000        123
 170.0000         69
 175.0000         81
 180.0000         66
 185.0000         79
 190.0000         67
 195.0000         68
 200.0000         68
 205.0000        109
 210.0000        300
 215.0000        710
 220.0000        898
 225.0000        483
 230.0000        254
 235.0000        140
 240.0000        129
 245.0000        124
 250.0000        138
 255.0000        128
 260.0000        145
 265.0000        182
 270.0000        211
 275.0000        199
 280.0000        195
 285.0000        161
 290.0000        116
 295.0000        121
 300.0000        125
 305.0000        100
 310.0000         97
 315.0000        156
 320.0000        215
 325.0000        464
 330.0000        945
 335.0000        750
 340.0000        245
 345.0000        105
 350.0000         73
 355.0000         75

; Data for range 15
_DRIVE = PHI
_STEPTIME = 0.5
_STEPSIZE = 5
_STEPMODE = C
_START = 0
_THETA = 16.0115
_2THETA = 32.023
_KHI = 70
_PHI = 0
_X = 0
_Y = 0
_Z = 0
_DIVERGENCE = 0.2
_ANTISCATTER = 0.2
_DETECTOR = 1
; Detector type : Scintillation counter
_HV = 670
_GAIN = 80
_LLD = 0.69
_ULD = 1.768
_DETECTORSLIT = out
_AUX1 = 0
_AUX2 = 0
_AUX3 = 0
_TIMESTARTED = 637
_TEMP_RATE = 0
_TEMP_DELAY = 0
_KV = 40
_MA = 40
_RANGE_WL = 1.5406
_3DPLANE = 0
_V4_COUNTERS_MASK = 1
_V4_DRIVES_MASK = 0
_V4_ENCODERS_MASK = 0
_2THETACOUNTS = 1
; PHI  Cnt1_D1
   0.0000         49
   5.0000         65
  10.0000         53
  15.0000         42
  20.0000         43
  25.0000         83
  30.0000        265
  35.0000        718
  40.0000        757
  45.0000        345
  50.0000        139
  55.0000         74
  60.0000         72
  65.0000         70
  70.0000         84
  75.0000        105
  80.0000        126
  85.0000        174
  90.0000        219
  95.0000        218
 100.0000        161
 105.0000        145
 110.0000        100
 115.0000         87
 120.0000         75
 125.0000         83
 130.0000         65
 135.0000         96
 140.0000        115
 145.0000        250
 150.0000        606
 155.0000        625
 160.0000        260
 165.0000         90
 170.0000         70
 175.0000         52
 180.0000         48
 185.0000         54
 190.0000         58
 195.0000         49
 200.0000         66
 205.0000         98
 210.0000        254
 215.0000        816
 220.0000        764
 225.0000        326
 230.0000        164
 235.0000        105
 240.0000         85
 245.0000         99
 250.0000        103
 255.0000        106
 260.0000        140
 265.0000        194
 270.0000        242
 275.0000        267
 280.0000        221
 285.0000        158
 290.0000        112
 295.0000        102
 300.0000         77
 305.0000         64
 310.0000         91
 315.0000         96
 320.0000        118
 325.0000        301
 330.0000        683
 335.0000        705
 340.0000        219
 345.0000         84
 350.0000         59
 355.0000         44

; Data for range 16
_DRIVE = PHI
_STEPTIME = 5
_STEPSIZE = 5
_STEPMODE = S
_START = 0
_THETA = 15.516
_2THETA = 31.032
_KHI = 0
_PHI = 0
_X = 0
_Y = 0
_Z = 0
_DIVERGENCE = 0.2
_ANTISCATTER = 0.2
_DETECTOR = 1
; Detector type : Scintillation counter
_HV = 670
_GAIN = 80
_LLD = 0.69
_ULD = 1.768
_DETECTORSLIT = out
_AUX1 = 0
_AUX2 = 0
_AUX3 = 0
_TIMESTARTED = 694
_TEMP_RATE = 0
_TEMP_DELAY = 0
_KV = 40
_MA = 40
_RANGE_WL = 1.5406
_3DPLANE = 0
_V4_COUNTERS_MASK = 1
_V4_DRIVES_MASK = 0
_V4_ENCODERS_MASK = 0
_2THETACOUNTS = 1
; PHI  Cnt1_D1
   0.0000        897

; Data for range 17
_DRIVE = PHI
_STEPTIME = 5
_STEPSIZE = 5
_STEPMODE = S
_START = 0
_THETA = 15.516
_2THETA = 31.032
_KHI = 5
_PHI = 0
_X = 0
_Y = 0
_Z = 0
_DIVERGENCE = 0.2
_ANTISCATTER = 0.2
_DETECTOR = 1
; Detector type : Scintillation counter
_HV = 670
_GAIN = 80
_LLD = 0.69
_ULD = 1.768
_DETECTORSLIT = out
_AUX1 = 0
_AUX2 = 0
_AUX3 = 0
_TIMESTARTED = 704
_TEMP_RATE = 0
_TEMP_DELAY = 0
_KV = 40
_MA = 40
_RANGE_WL = 1.5406
_3DPLANE = 0
_V4_COUNTERS_MASK = 1
_V4_DRIVES_MASK = 0
_V4_ENCODERS_MASK = 0
_2THETACOUNTS = 1
; PHI  Cnt1_D1
   0.0000        890

; Data for range 18
_DRIVE = PHI
_STEPTIME = 5
_STEPSIZE = 5
_STEPMODE = S
_START = 0
_THETA = 15.516
_2THETA = 31.032
_KHI = 10
_PHI = 0
_X = 0
_Y = 0
_Z = 0
_DIVERGENCE = 0.2
_ANTISCATTER = 0.2
_DETECTOR = 1
; Detector type : Scintillation counter
_HV = 670
_GAIN = 80
_LLD = 0.69
_ULD = 1.768
_DETECTORSLIT = out
_AUX1 = 0
_AUX2 = 0
_AUX3 = 0
_TIMESTARTED = 714
_TEMP_RATE = 0
_TEMP_DELAY = 0
_KV = 40
_MA = 40
_RANGE_WL = 1.5406
_3DPLANE = 0
_V4_COUNTERS_MASK = 1
_V4_DRIVES_MASK = 0
_V4_ENCODERS_MASK = 0
_2THETACOUNTS = 1
; PHI  Cnt1_D1
   0.0000        820

; Data for range 19
_DRIVE = PHI
_STEPTIME = 5
_STEPSIZE = 5
_STEPMODE = S
_START = 0
_THETA = 15.516
_2THETA = 31.032
_KHI = 15
_PHI = 0
_X = 0
_Y = 0
_Z = 0
_DIVERGENCE = 0.2
_ANTISCATTER = 0.2
_DETECTOR = 1
; Detector type : Scintillation counter
_HV = 670
_GAIN = 80
_LLD = 0.69
_ULD = 1.768
_DETECTORSLIT = out
_AUX1 = 0
_AUX2 = 0
_AUX3 = 0
_TIMESTARTED = 725
_TEMP_RATE = 0
_TEMP_DELAY = 0
_KV = 40
_MA = 40
_RANGE_WL = 1.5406
_3DPLANE = 0
_V4_COUNTERS_MASK = 1
_V4_DRIVES_MASK = 0
_V4_ENCODERS_MASK = 0
_2THETACOUNTS = 1
; PHI  Cnt1_D1
   0.0000        827

; Data for range 20
_DRIVE = PHI
_STEPTIME = 5
_STEPSIZE = 5
_STEPMODE = S
_START = 0
_THETA = 15.516
_2THETA = 31.032
_KHI = 20
_PHI = 0
_X = 0
_Y = 0
_Z = 0
_DIVERGENCE = 0.2
_ANTISCATTER = 0.2
_DETECTOR = 1
; Detector type : Scintillation counter
_HV = 670
_GAIN = 80
_LLD = 0.69
_ULD = 1.768
_DETECTORSLIT = out
_AUX1 = 0
_AUX2 = 0
_AUX3 = 0
_TIMESTARTED = 736
_TEMP_RATE = 0
_TEMP_DELAY = 0
_KV = 40
_MA = 40
_RANGE_WL = 1.5406
_3DPLANE = 0
_V4_COUNTERS_MASK = 1
_V4_DRIVES_MASK = 0
_V4_ENCODERS_MASK = 0
_2THETACOUNTS = 1
; PHI  Cnt1_D1
   0.0000        858

; Data for range 21
_DRIVE = PHI
_STEPTIME = 5
_STEPSIZE = 5
_STEPMODE = S
_START = 0
_THETA = 15.516
_2THETA = 31.032
_KHI = 25
_PHI = 0
_X = 0
_Y = 0
_Z = 0
_DIVERGENCE = 0.2
_ANTISCATTER = 0.2
_DETECTOR = 1
; Detector type : Scintillation counter
_HV = 670
_GAIN = 80
_LLD = 0.69
_ULD = 1.768
_DETECTORSLIT = out
_AUX1 = 0
_AUX2 = 0
_AUX3 = 0
_TIMESTARTED = 746
_TEMP_RATE = 0
_TEMP_DELAY = 0
_KV = 40
_MA = 40
_RANGE_WL = 1.5406
_3DPLANE = 0
_V4_COUNTERS_MASK = 1
_V4_DRIVES_MASK = 0
_V4_ENCODERS_MASK = 0
_2THETACOUNTS = 1
; PHI  Cnt1_D1
   0.0000        894

; Data for range 22
_DRIVE = PHI
_STEPTIME = 5
_STEPSIZE = 5
_STEPMODE = S
_START = 0
_THETA = 15.516
_2THETA = 31.032
_KHI = 30
_PHI = 0
_X = 0
_Y = 0
_Z = 0
_DIVERGENCE = 0.2
_ANTISCATTER = 0.2
_DETECTOR = 1
; Detector type : Scintillation counter
_HV = 670
_GAIN = 80
_LLD = 0.69
_ULD = 1.768
_DETECTORSLIT = out
_AUX1 = 0
_AUX2 = 0
_AUX3 = 0
_TIMESTARTED = 756
_TEMP_RATE = 0
_TEMP_DELAY = 0
_KV = 40
_MA = 40
_RANGE_WL = 1.5406
_3DPLANE = 0
_V4_COUNTERS_MASK = 1
_V4_DRIVES_MASK = 0
_V4_ENCODERS_MASK = 0
_2THETACOUNTS = 1
; PHI  Cnt1_D1
   0.0000        915

; Data for range 23
_DRIVE = PHI
_STEPTIME = 5
_STEPSIZE = 5
_STEPMODE = S
_START = 0
_THETA = 15.516
_2THETA = 31.032
_KHI = 35
_PHI = 0
_X = 0
_Y = 0
_Z = 0
_DIVERGENCE = 0.2
_ANTISCATTER = 0.2
_DETECTOR = 1
; Detector type : Scintillation counter
_HV = 670
_GAIN = 80
_LLD = 0.69
_ULD = 1.768
_DETECTORSLIT = out
_AUX1 = 0
_AUX2 = 0
_AUX3 = 0
_TIMESTARTED = 766
_TEMP_RATE = 0
_TEMP_DELAY = 0
_KV = 40
_MA = 40
_RANGE_WL = 1.5406
_3DPLANE = 0
_V4_COUNTERS_MASK = 1
_V4_DRIVES_MASK = 0
_V4_ENCODERS_MASK = 0
_2THETACOUNTS = 1
; PHI  Cnt1_D1
   0.0000        935

; Data for range 24
_DRIVE = PHI
_STEPTIME = 5
_STEPSIZE = 5
_STEPMODE = S
_START = 0
_THETA = 15.516
_2THETA = 31.032
_KHI = 40
_PHI = 0
_X = 0
_Y = 0
_Z = 0
_DIVERGENCE = 0.2
_ANTISCATTER = 0.2
_DETECTOR = 1
; Detector type : Scintillation counter
_HV = 670
_GAIN = 80
_LLD = 0.69
_ULD = 1.768
_DETECTORSLIT = out
_AUX1 = 0
_AUX2 = 0
_AUX3 = 0
_TIMESTARTED = 776
_TEMP_RATE = 0
_TEMP_DELAY = 0
_KV = 40
_MA = 40
_RANGE_WL = 1.5406
_3DPLANE = 0
_V4_COUNTERS_MASK = 1
_V4_DRIVES_MASK = 0
_V4_ENCODERS_MASK = 0
_2THETACOUNTS = 1
; PHI  Cnt1_D1
   0.0000        871

; Data for range 25
_DRIVE = PHI
_STEPTIME = 5
_STEPSIZE = 5
_STEPMODE = S
_START = 0
_THETA = 15.516
_2THETA = 31.032
_KHI = 45
_PHI = 0
_X = 0
_Y = 0
_Z = 0
_DIVERGENCE = 0.2
_ANTISCATTER = 0.2
_DETECTOR = 1
; Detector type : Scintillation counter
_HV = 670
_GAIN = 80
_LLD = 0.69
_ULD = 1.768
_DETECTORSLIT = out
_AUX1 = 0
_AUX2 = 0
_AUX3 = 0
_TIMESTARTED = 786
_TEMP_RATE = 0
_TEMP_DELAY = 0
_KV = 40
_MA = 40
_RANGE_WL = 1.5406
_3DPLANE = 0
_V4_COUNTERS_MASK = 1
_V4_DRIVES_MASK = 0
_V4_ENCODERS_MASK = 0
_2THETACOUNTS = 1
; PHI  Cnt1_D1
   0.0000        875

; Data for range 26
_DRIVE = PHI
_STEPTIME = 5
_STEPSIZE = 5
_STEPMODE = S
_START = 0
_THETA = 15.516
_2THETA = 31.032
_KHI = 50
_PHI = 0
_X = 0
_Y = 0
_Z = 0
_DIVERGENCE = 0.2
_ANTISCATTER = 0.2
_DETECTOR = 1
; Detector type : Scintillation counter
_HV = 670
_GAIN = 80
_LLD = 0.69
_ULD = 1.768
_DETECTORSLIT = out
_AUX1 = 0
_AUX2 = 0
_AUX3 = 0
_TIMESTARTED = 796
_TEMP_RATE = 0
_TEMP_DELAY = 0
_KV = 40
_MA = 40
_RANGE_WL = 1.5406
_3DPLANE = 0
_V4_COUNTERS_MASK = 1
_V4_DRIVES_MASK = 0
_V4_ENCODERS_MASK = 0
_2THETACOUNTS = 1
; PHI  Cnt1_D1
   0.0000        863

; Data for range 27
_DRIVE = PHI
_STEPTIME = 5
_STEPSIZE = 5
_STEPMODE = S
_START = 0
_THETA = 15.516
_2THETA = 31.032
_KHI = 55
_PHI = 0
_X = 0
_Y = 0
_Z = 0
_DIVERGENCE = 0.2
_ANTISCATTER = 0.2
_DETECTOR = 1
; Detector type : Scintillation counter
_HV = 670
_GAIN = 80
_LLD = 0.69
_ULD = 1.768
_DETECTORSLIT = out
_AUX1 = 0
_AUX2 = 0
_AUX3 = 0
_TIMESTARTED = 806
_TEMP_RATE = 0
_TEMP_DELAY = 0
_KV = 40
_MA = 40
_RANGE_WL = 1.5406
_3DPLANE = 0
_V4_COUNTERS_MASK = 1
_V4_DRIVES_MASK = 0
_V4_ENCODERS_MASK = 0
_2THETACOUNTS = 1
; PHI  Cnt1_D1
   0.0000        789

; Data for range 28
_DRIVE = PHI
_STEPTIME = 5
_STEPSIZE = 5
_STEPMODE = S
_START = 0
_THETA = 15.516
_2THETA = 31.032
_KHI = 60
_PHI = 0
_X = 0
_Y = 0
_Z = 0
_DIVERGENCE = 0.2
_ANTISCATTER = 0.2
_DETECTOR = 1
; Detector type : Scintillation counter
_HV = 670
_GAIN = 80
_LLD = 0.69
_ULD = 1.768
_DETECTORSLIT = out
_AUX1 = 0
_AUX2 = 0
_AUX3 = 0
_TIMESTARTED = 816
_TEMP_RATE = 0
_TEMP_DELAY = 0
_KV = 40
_MA = 40
_RANGE_WL = 1.5406
_3DPLANE = 0
_V4_COUNTERS_MASK = 1
_V4_DRIVES_MASK = 0
_V4_ENCODERS_MASK = 0
_2THETACOUNTS = 1
; PHI  Cnt1_D1
   0.0000        715

; Data for range 29
_DRIVE = PHI
_STEPTIME = 5
_STEPSIZE = 5
_STEPMODE = S
_START = 0
_THETA = 15.516
_2THETA = 31.032
_KHI = 65
_PHI = 0
_X = 0
_Y = 0
_Z = 0
_DIVERGENCE = 0.2
_ANTISCATTER = 0.2
_DETECTOR = 1
; Detector type : Scintillation counter
_HV = 670
_GAIN = 80
_LLD = 0.69
_ULD = 1.768
_DETECTORSLIT = out
_AUX1 = 0
_AUX2 = 0
_AUX3 = 0
_TIMESTARTED = 827
_TEMP_RATE = 0
_TEMP_DELAY = 0
_KV = 40
_MA = 40
_RANGE_WL = 1.5406
_3DPLANE = 0
_V4_COUNTERS_MASK = 1
_V4_DRIVES_MASK = 0
_V4_ENCODERS_MASK = 0
_2THETACOUNTS = 1
; PHI  Cnt1_D1
   0.0000        571

; Data for range 30
_DRIVE = PHI
_STEPTIME = 5
_STEPSIZE = 5
_STEPMODE = S
_START = 0
_THETA = 15.516
_2THETA = 31.032
_KHI = 70
_PHI = 0
_X = 0
_Y = 0
_Z = 0
_DIVERGENCE = 0.2
_ANTISCATTER = 0.2
_DETECTOR = 1
; Detector type : Scintillation counter
_HV = 670
_GAIN = 80
_LLD = 0.69
_ULD = 1.768
_DETECTORSLIT = out
_AUX1 = 0
_AUX2 = 0
_AUX3 = 0
_TIMESTARTED = 837
_TEMP_RATE = 0
_TEMP_DELAY = 0
_KV = 40
_MA = 40
_RANGE_WL = 1.5406
_3DPLANE = 0
_V4_COUNTERS_MASK = 1
_V4_DRIVES_MASK = 0
_V4_ENCODERS_MASK = 0
_2THETACOUNTS = 1
; PHI  Cnt1_D1
   0.0000        488

[...]
 135.0000         88
 140.0000         74
 145.0000         60
 150.0000         39
 155.0000         51
 160.0000         57
 165.0000         73
 170.0000         87
 175.0000        158
 180.0000        406
 185.0000        708
 190.0000        380
 195.0000        153
 200.0000         84
 205.0000         76
 210.0000         79
 215.0000         62
 220.0000         69
 225.0000         67
 230.0000         72
 235.0000         86
 240.0000        137
 245.0000        289
 250.0000        499
 255.0000        584
 260.0000        421
 265.0000        300
 270.0000        238
 275.0000        229
 280.0000        244
 285.0000        369
 290.0000        528
 295.0000        721
 300.0000        568
 305.0000        307
 310.0000        141
 315.0000         80
 320.0000         67
 325.0000         56
 330.0000         55
 335.0000         52
 340.0000         53
 345.0000         58
 350.0000         70
 355.0000        145

; Data for range 195
_DRIVE = PHI
_STEPTIME = 0.5
_STEPSIZE = 5
_STEPMODE = C
_START = 0
_THETA = 28.531
_2THETA = 57.062
_KHI = 70
_PHI = 0
_X = 0
_Y = 0
_Z = 0
_DIVERGENCE = 0.2
_ANTISCATTER = 0.2
_DETECTOR = 1
; Detector type : Scintillation counter
_HV = 670
_GAIN = 80
_LLD = 0.69
_ULD = 1.768
_DETECTORSLIT = out
_AUX1 = 0
_AUX2 = 0
_AUX3 = 0
_TIMESTARTED = 4729
_TEMP_RATE = 0
_TEMP_DELAY = 0
_KV = 40
_MA = 40
_RANGE_WL = 1.5406
_3DPLANE = 0
_V4_COUNTERS_MASK = 1
_V4_DRIVES_MASK = 0
_V4_ENCODERS_MASK = 0
_2THETACOUNTS = 1
; PHI  Cnt1_D1
   0.0000        303
   5.0000        565
  10.0000        278
  15.0000         75
  20.0000         52
  25.0000         48
  30.0000         46
  35.0000         51
  40.0000         47
  45.0000         51
  50.0000         53
  55.0000         79
  60.0000        143
  65.0000        371
  70.0000        637
  75.0000        503
  80.0000        271
  85.0000        179
  90.0000         97
  95.0000         94
 100.0000        112
 105.0000        157
 110.0000        277
 115.0000        446
 120.0000        587
 125.0000        417
 130.0000        155
 135.0000         63
 140.0000         75
 145.0000         47
 150.0000         56
 155.0000         39
 160.0000         42
 165.0000         65
 170.0000         57
 175.0000        116
 180.0000        342
 185.0000        643
 190.0000        333
 195.0000         93
 200.0000         52
 205.0000         72
 210.0000         56
 215.0000         42
 220.0000         45
 225.0000         44
 230.0000         60
 235.0000         61
 240.0000        149
 245.0000        421
 250.0000        640
 255.0000        478
 260.0000        270
 265.0000        146
 270.0000        102
 275.0000        115
 280.0000        116
 285.0000        184
 290.0000        308
 295.0000        643
 300.0000        778
 305.0000        420
 310.0000        138
 315.0000         70
 320.0000         57
 325.0000         44
 330.0000         43
 335.0000         46
 340.0000         38
 345.0000         52
 350.0000         58
 355.0000        102

; Data for range 196
_DRIVE = PHI
_STEPTIME = 5
_STEPSIZE = 5
_STEPMODE = S
_START = 0
_THETA = 28.114
_2THETA = 56.228
_KHI = 0
_PHI = 0
_X = 0
_Y = 0
_Z = 0
_DIVERGENCE = 0.2
_ANTISCATTER = 0.2
_DETECTOR = 1
; Detector type : Scintillation counter
_HV = 670
_GAIN = 80
_LLD = 0.69
_ULD = 1.768
_DETECTORSLIT = out
_AUX1 = 0
_AUX2 = 0
_AUX3 = 0
_TIMESTARTED = 4786
_TEMP_RATE = 0
_TEMP_DELAY = 0
_KV = 40
_MA = 40
_RANGE_WL = 1.5406
_3DPLANE = 0
_V4_COUNTERS_MASK = 1
_V4_DRIVES_MASK = 0
_V4_ENCODERS_MASK = 0
_2THETACOUNTS = 1
; PHI  Cnt1_D1
   0.0000        694

; Data for range 197
_DRIVE = PHI
_STEPTIME = 5
_STEPSIZE = 5
_STEPMODE = S
_START = 0
_THETA = 28.114
_2THETA = 56.228
_KHI = 5
_PHI = 0
_X = 0
_Y = 0
_Z = 0
_DIVERGENCE = 0.2
_ANTISCATTER = 0.2
_DETECTOR = 1
; Detector type : Scintillation counter
_HV = 670
_GAIN = 80
_LLD = 0.69
_ULD = 1.768
_DETECTORSLIT = out
_AUX1 = 0
_AUX2 = 0
_AUX3 = 0
_TIMESTARTED = 4796
_TEMP_RATE = 0
_TEMP_DELAY = 0
_KV = 40
_MA = 40
_RANGE_WL = 1.5406
_3DPLANE = 0
_V4_COUNTERS_MASK = 1
_V4_DRIVES_MASK = 0
_V4_ENCODERS_MASK = 0
_2THETACOUNTS = 1
; PHI  Cnt1_D1
   0.0000        714

; Data for range 198
_DRIVE = PHI
_STEPTIME = 5
_STEPSIZE = 5
_STEPMODE = S
_START = 0
_THETA = 28.114
_2THETA = 56.228
_KHI = 10
_PHI = 0
_X = 0
_Y = 0
_Z = 0
_DIVERGENCE = 0.2
_ANTISCATTER = 0.2
_DETECTOR = 1
; Detector type : Scintillation counter
_HV = 670
_GAIN = 80
_LLD = 0.69
_ULD = 1.768
_DETECTORSLIT = out
_AUX1 = 0
_AUX2 = 0
_AUX3 = 0
_TIMESTARTED = 4807
_TEMP_RATE = 0
_TEMP_DELAY = 0
_KV = 40
_MA = 40
_RANGE_WL = 1.5406
_3DPLANE = 0
_V4_COUNTERS_MASK = 1
_V4_DRIVES_MASK = 0
_V4_ENCODERS_MASK = 0
_2THETACOUNTS = 1
; PHI  Cnt1_D1
   0.0000        730

; Data for range 199
_DRIVE = PHI
_STEPTIME = 5
_STEPSIZE = 5
_STEPMODE = S
_START = 0
_THETA = 28.114
_2THETA = 56.228
_KHI = 15
_PHI = 0
_X = 0
_Y = 0
_Z = 0
_DIVERGENCE = 0.2
_ANTISCATTER = 0.2
_DETECTOR = 1
; Detector type : Scintillation counter
_HV = 670
_GAIN = 80
_LLD = 0.69
_ULD = 1.768
_DETECTORSLIT = out
_AUX1 = 0
_AUX2 = 0
_AUX3 = 0
_TIMESTARTED = 4817
_TEMP_RATE = 0
_TEMP_DELAY = 0
_KV = 40
_MA = 40
_RANGE_WL = 1.5406
_3DPLANE = 0
_V4_COUNTERS_MASK = 1
_V4_DRIVES_MASK = 0
_V4_ENCODERS_MASK = 0
_2THETACOUNTS = 1
; PHI  Cnt1_D1
   0.0000        700

; Data for range 200
_DRIVE = PHI
_STEPTIME = 5
_STEPSIZE = 5
_STEPMODE = S
_START = 0
_THETA = 28.114
_2THETA = 56.228
_KHI = 20
_PHI = 0
_X = 0
_Y = 0
_Z = 0
_DIVERGENCE = 0.2
_ANTISCATTER = 0.2
_DETECTOR = 1
; Detector type : Scintillation counter
_HV = 670
_GAIN = 80
_LLD = 0.69
_ULD = 1.768
_DETECTORSLIT = out
_AUX1 = 0
_AUX2 = 0
_AUX3 = 0
_TIMESTARTED = 4827
_TEMP_RATE = 0
_TEMP_DELAY = 0
_KV = 40
_MA = 40
_RANGE_WL = 1.5406
_3DPLANE = 0
_V4_COUNTERS_MASK = 1
_V4_DRIVES_MASK = 0
_V4_ENCODERS_MASK = 0
_2THETACOUNTS = 1
; PHI  Cnt1_D1
   0.0000        661

; Data for range 201
_DRIVE = PHI
_STEPTIME = 5
_STEPSIZE = 5
_STEPMODE = S
_START = 0
_THETA = 28.114
_2THETA = 56.228
_KHI = 25
_PHI = 0
_X = 0
_Y = 0
_Z = 0
_DIVERGENCE = 0.2
_ANTISCATTER = 0.2
_DETECTOR = 1
; Detector type : Scintillation counter
_HV = 670
_GAIN = 80
_LLD = 0.69
_ULD = 1.768
_DETECTORSLIT = out
_AUX1 = 0
_AUX2 = 0
_AUX3 = 0
_TIMESTARTED = 4837
_TEMP_RATE = 0
_TEMP_DELAY = 0
_KV = 40
_MA = 40
_RANGE_WL = 1.5406
_3DPLANE = 0
_V4_COUNTERS_MASK = 1
_V4_DRIVES_MASK = 0
_V4_ENCODERS_MASK = 0
_2THETACOUNTS = 1
; PHI  Cnt1_D1
   0.0000        680

; Data for range 202
_DRIVE = PHI
_STEPTIME = 5
_STEPSIZE = 5
_STEPMODE = S
_START = 0
_THETA = 28.114
_2THETA = 56.228
_KHI = 30
_PHI = 0
_X = 0
_Y = 0
_Z = 0
_DIVERGENCE = 0.2
_ANTISCATTER = 0.2
_DETECTOR = 1
; Detector type : Scintillation counter
_HV = 670
_GAIN = 80
_LLD = 0.69
_ULD = 1.768
_DETECTORSLIT = out
_AUX1 = 0
_AUX2 = 0
_AUX3 = 0
_TIMESTARTED = 4848
_TEMP_RATE = 0
_TEMP_DELAY = 0
_KV = 40
_MA = 40
_RANGE_WL = 1.5406
_3DPLANE = 0
_V4_COUNTERS_MASK = 1
_V4_DRIVES_MASK = 0
_V4_ENCODERS_MASK = 0
_2THETACOUNTS = 1
; PHI  Cnt1_D1
   0.0000        776

; Data for range 203
_DRIVE = PHI
_STEPTIME = 5
_STEPSIZE = 5
_STEPMODE = S
_START = 0
_THETA = 28.114
_2THETA = 56.228
_KHI = 35
_PHI = 0
_X = 0
_Y = 0
_Z = 0
_DIVERGENCE = 0.2
_ANTISCATTER = 0.2
_DETECTOR = 1
; Detector type : Scintillation counter
_HV = 670
_GAIN = 80
_LLD = 0.69
_ULD = 1.768
_DETECTORSLIT = out
_AUX1 = 0
_AUX2 = 0
_AUX3 = 0
_TIMESTARTED = 4858
_TEMP_RATE = 0
_TEMP_DELAY = 0
_KV = 40
_MA = 40
_RANGE_WL = 1.5406
_3DPLANE = 0
_V4_COUNTERS_MASK = 1
_V4_DRIVES_MASK = 0
_V4_ENCODERS_MASK = 0
_2THETACOUNTS = 1
; PHI  Cnt1_D1
   0.0000        705

; Data for range 204
_DRIVE = PHI
_STEPTIME = 5
_STEPSIZE = 5
_STEPMODE = S
_START = 0
_THETA = 28.114
_2THETA = 56.228
_KHI = 40
_PHI = 0
_X = 0
_Y = 0
_Z = 0
_DIVERGENCE = 0.2
_ANTISCATTER = 0.2
_DETECTOR = 1
; Detector type : Scintillation counter
_HV = 670
_GAIN = 80
_LLD = 0.69
_ULD = 1.768
_DETECTORSLIT = out
_AUX1 = 0
_AUX2 = 0
_AUX3 = 0
_TIMESTARTED = 4868
_TEMP_RATE = 0
_TEMP_DELAY = 0
_KV = 40
_MA = 40
_RANGE_WL = 1.5406
_3DPLANE = 0
_V4_COUNTERS_MASK = 1
_V4_DRIVES_MASK = 0
_V4_ENCODERS_MASK = 0
_2THETACOUNTS = 1
; PHI  Cnt1_D1
   0.0000        763

; Data for range 205
_DRIVE = PHI
_STEPTIME = 5
_STEPSIZE = 5
_STEPMODE = S
_START = 0
_THETA = 28.114
_2THETA = 56.228
_KHI = 45
_PHI = 0
_X = 0
_Y = 0
_Z = 0
_DIVERGENCE = 0.2
_ANTISCATTER = 0.2
_DETECTOR = 1
; Detector type : Scintillation counter
_HV = 670
_GAIN = 80
_LLD = 0.69
_ULD = 1.768
_DETECTORSLIT = out
_AUX1 = 0
_AUX2 = 0
_AUX3 = 0
_TIMESTARTED = 4878
_TEMP_RATE = 0
_TEMP_DELAY = 0
_KV = 40
_MA = 40
_RANGE_WL = 1.5406
_3DPLANE = 0
_V4_COUNTERS_MASK = 1
_V4_DRIVES_MASK = 0
_V4_ENCODERS_MASK = 0
_2THETACOUNTS = 1
; PHI  Cnt1_D1
   0.0000        764

; Data for range 206
_DRIVE = PHI
_STEPTIME = 5
_STEPSIZE = 5
_STEPMODE = S
_START = 0
_THETA = 28.114
_2THETA = 56.228
_KHI = 50
_PHI = 0
_X = 0
_Y = 0
_Z = 0
_DIVERGENCE = 0.2
_ANTISCATTER = 0.2
_DETECTOR = 1
; Detector type : Scintillation counter
_HV = 670
_GAIN = 80
_LLD = 0.69
_ULD = 1.768
_DETECTORSLIT = out
_AUX1 = 0
_AUX2 = 0
_AUX3 = 0
_TIMESTARTED = 4888
_TEMP_RATE = 0
_TEMP_DELAY = 0
_KV = 40
_MA = 40
_RANGE_WL = 1.5406
_3DPLANE = 0
_V4_COUNTERS_MASK = 1
_V4_DRIVES_MASK = 0
_V4_ENCODERS_MASK = 0
_2THETACOUNTS = 1
; PHI  Cnt1_D1
   0.0000        816

; Data for range 207
_DRIVE = PHI
_STEPTIME = 5
_STEPSIZE = 5
_STEPMODE = S
_START = 0
_THETA = 28.114
_2THETA = 56.228
_KHI = 55
_PHI = 0
_X = 0
_Y = 0
_Z = 0
_DIVERGENCE = 0.2
_ANTISCATTER = 0.2
_DETECTOR = 1
; Detector type : Scintillation counter
_HV = 670
_GAIN = 80
_LLD = 0.69
_ULD = 1.768
_DETECTORSLIT = out
_AUX1 = 0
_AUX2 = 0
_AUX3 = 0
_TIMESTARTED = 4898
_TEMP_RATE = 0
_TEMP_DELAY = 0
_KV = 40
_MA = 40
_RANGE_WL = 1.5406
_3DPLANE = 0
_V4_COUNTERS_MASK = 1
_V4_DRIVES_MASK = 0
_V4_ENCODERS_MASK = 0
_2THETACOUNTS = 1
; PHI  Cnt1_D1
   0.0000        894

; Data for range 208
_DRIVE = PHI
_STEPTIME = 5
_STEPSIZE = 5
_STEPMODE = S
_START = 0
_THETA = 28.114
_2THETA = 56.228
_KHI = 60
_PHI = 0
_X = 0
_Y = 0
_Z = 0
_DIVERGENCE = 0.2
_ANTISCATTER = 0.2
_DETECTOR = 1
; Detector type : Scintillation counter
_HV = 670
_GAIN = 80
_LLD = 0.69
_ULD = 1.768
_DETECTORSLIT = out
_AUX1 = 0
_AUX2 = 0
_AUX3 = 0
_TIMESTARTED = 4908
_TEMP_RATE = 0
_TEMP_DELAY = 0
_KV = 40
_MA = 40
_RANGE_WL = 1.5406
_3DPLANE = 0
_V4_COUNTERS_MASK = 1
_V4_DRIVES_MASK = 0
_V4_ENCODERS_MASK = 0
_2THETACOUNTS = 1
; PHI  Cnt1_D1
   0.0000       1096

; Data for range 209
_DRIVE = PHI
_STEPTIME = 5
_STEPSIZE = 5
_STEPMODE = S
_START = 0
_THETA = 28.114
_2THETA = 56.228
_KHI = 65
_PHI = 0
_X = 0
_Y = 0
_Z = 0
_DIVERGENCE = 0.2
_ANTISCATTER = 0.2
_DETECTOR = 1
; Detector type : Scintillation counter
_HV = 670
_GAIN = 80
_LLD = 0.69
_ULD = 1.768
_DETECTORSLIT = out
_AUX1 = 0
_AUX2 = 0
_AUX3 = 0
_TIMESTARTED = 4919
_TEMP_RATE = 0
_TEMP_DELAY = 0
_KV = 40
_MA = 40
_RANGE_WL = 1.5406
_3DPLANE = 0
_V4_COUNTERS_MASK = 1
_V4_DRIVES_MASK = 0
_V4_ENCODERS_MASK = 0
_2THETACOUNTS = 1
; PHI  Cnt1_D1
   0.0000        960

; Data for range 210
_DRIVE = PHI
_STEPTIME = 5
_STEPSIZE = 5
_STEPMODE = S
_START = 0
_THETA = 28.114
_2THETA = 56.228
_KHI = 70
_PHI = 0
_X = 0
_Y = 0
_Z = 0
_DIVERGENCE = 0.2
_ANTISCATTER = 0.2
_DETECTOR = 1
; Detector type : Scintillation counter
_HV = 670
_GAIN = 80
_LLD = 0.69
_ULD = 1.768
_DETECTORSLIT = out
_AUX1 = 0
_AUX2 = 0
_AUX3 = 0
_TIMESTARTED = 4930
_TEMP_RATE = 0
_TEMP_DELAY = 0
_KV = 40
_MA = 40
_RANGE_WL = 1.5406
_3DPLANE = 0
_V4_COUNTERS_MASK = 1
_V4_DRIVES_MASK = 0
_V4_ENCODERS_MASK = 0
_2THETACOUNTS = 1
; PHI  Cnt1_D1
   0.0000        860

; Data for range 211
_DRIVE = PHI
_STEPTIME = 5
_STEPSIZE = 5
_STEPMODE = S
_START = 0
_THETA = 29.145
_2THETA = 58.29
_KHI = 0
_PHI = 0
_X = 0
_Y = 0
_Z = 0
_DIVERGENCE = 0.2
_ANTISCATTER = 0.2
_DETECTOR = 1
; Detector type : Scintillation counter
_HV = 670
_GAIN = 80
_LLD = 0.69
_ULD = 1.768
_DETECTORSLIT = out
_AUX1 = 0
_AUX2 = 0
_AUX3 = 0
_TIMESTARTED = 4956
_TEMP_RATE = 0
_TEMP_DELAY = 0
_KV = 40
_MA = 40
_RANGE_WL = 1.5406
_3DPLANE = 0
_V4_COUNTERS_MASK = 1
_V4_DRIVES_MASK = 0
_V4_ENCODERS_MASK = 0
_2THETACOUNTS = 1
; PHI  Cnt1_D1
   0.0000        653

; Data for range 212
_DRIVE = PHI
_STEPTIME = 5
_STEPSIZE = 5
_STEPMODE = S
_START = 0
_THETA = 29.145
_2THETA = 58.29
_KHI = 5
_PHI = 0
_X = 0
_Y = 0
_Z = 0
_DIVERGENCE = 0.2
_ANTISCATTER = 0.2
_DETECTOR = 1
; Detector type : Scintillation counter
_HV = 670
_GAIN = 80
_LLD = 0.69
_ULD = 1.768
_DETECTORSLIT = out
_AUX1 = 0
_AUX2 = 0
_AUX3 = 0
_TIMESTARTED = 4965
_TEMP_RATE = 0
_TEMP_DELAY = 0
_KV = 40
_MA = 40
_RANGE_WL = 1.5406
_3DPLANE = 0
_V4_COUNTERS_MASK = 1
_V4_DRIVES_MASK = 0
_V4_ENCODERS_MASK = 0
_2THETACOUNTS = 1
; PHI  Cnt1_D1
   0.0000        633

; Data for range 213
_DRIVE = PHI
_STEPTIME = 5
_STEPSIZE = 5
_STEPMODE = S
_START = 0
_THETA = 29.145
_2THETA = 58.29
_KHI = 10
_PHI = 0
_X = 0
_Y = 0
_Z = 0
_DIVERGENCE = 0.2
_ANTISCATTER = 0.2
_DETECTOR = 1
; Detector type : Scintillation counter
_HV = 670
_GAIN = 80
_LLD = 0.69
_ULD = 1.768
_DETECTORSLIT = out
_AUX1 = 0
_AUX2 = 0
_AUX3 = 0
_TIMESTARTED = 4975
_TEMP_RATE = 0
_TEMP_DELAY = 0
_KV = 40
_MA = 40
_RANGE_WL = 1.5406
_3DPLANE = 0
_V4_COUNTERS_MASK = 1
_V4_DRIVES_MASK = 0
_V4_ENCODERS_MASK = 0
_2THETACOUNTS = 1
; PHI  Cnt1_D1
   0.0000        630

; Data for range 214
_DRIVE = PHI
_STEPTIME = 5
_STEPSIZE = 5
_STEPMODE = S
_START = 0
_THETA = 29.145
_2THETA = 58.29
_KHI = 15
_PHI = 0
_X = 0
_Y = 0
_Z = 0
_DIVERGENCE = 0.2
_ANTISCATTER = 0.2
_DETECTOR = 1
; Detector type : Scintillation counter
_HV = 670
_GAIN = 80
_LLD = 0.69
_ULD = 1.768
_DETECTORSLIT = out
_AUX1 = 0
_AUX2 = 0
_AUX3 = 0
_TIMESTARTED = 4987
_TEMP_RATE = 0
_TEMP_DELAY = 0
_KV = 40
_MA = 40
_RANGE_WL = 1.5406
_3DPLANE = 0
_V4_COUNTERS_MASK = 1
_V4_DRIVES_MASK = 0
_V4_ENCODERS_MASK = 0
_2THETACOUNTS = 1
; PHI  Cnt1_D1
   0.0000        651

; Data for range 215
_DRIVE = PHI
_STEPTIME = 5
_STEPSIZE = 5
_STEPMODE = S
_START = 0
_THETA = 29.145
_2THETA = 58.29
_KHI = 20
_PHI = 0
_X = 0
_Y = 0
_Z = 0
_DIVERGENCE = 0.2
_ANTISCATTER = 0.2
_DETECTOR = 1
; Detector type : Scintillation counter
_HV = 670
_GAIN = 80
_LLD = 0.69
_ULD = 1.768
_DETECTORSLIT = out
_AUX1 = 0
_AUX2 = 0
_AUX3 = 0
_TIMESTARTED = 4996
_TEMP_RATE = 0
_TEMP_DELAY = 0
_KV = 40
_MA = 40
_RANGE_WL = 1.5406
_3DPLANE = 0
_V4_COUNTERS_MASK = 1
_V4_DRIVES_MASK = 0
_V4_ENCODERS_MASK = 0
_2THETACOUNTS = 1
; PHI  Cnt1_D1
   0.0000        630

; Data for range 216
_DRIVE = PHI
_STEPTIME = 5
_STEPSIZE = 5
_STEPMODE = S
_START = 0
_THETA = 29.145
_2THETA = 58.29
_KHI = 25
_PHI = 0
_X = 0
_Y = 0
_Z = 0
_DIVERGENCE = 0.2
_ANTISCATTER = 0.2
_DETECTOR = 1
; Detector type : Scintillation counter
_HV = 670
_GAIN = 80
_LLD = 0.69
_ULD = 1.768
_DETECTORSLIT = out
_AUX1 = 0
_AUX2 = 0
_AUX3 = 0
_TIMESTARTED = 5007
_TEMP_RATE = 0
_TEMP_DELAY = 0
_KV = 40
_MA = 40
_RANGE_WL = 1.5406
_3DPLANE = 0
_V4_COUNTERS_MASK = 1
_V4_DRIVES_MASK = 0
_V4_ENCODERS_MASK = 0
_2THETACOUNTS = 1
; PHI  Cnt1_D1
   0.0000        656

; Data for range 217
_DRIVE = PHI
_STEPTIME = 5
_STEPSIZE = 5
_STEPMODE = S
_START = 0
_THETA = 29.145
_2THETA = 58.29
_KHI = 30
_PHI = 0
_X = 0
_Y = 0
_Z = 0
_DIVERGENCE = 0.2
_ANTISCATTER = 0.2
_DETECTOR = 1
; Detector type : Scintillation counter
_HV = 670
_GAIN = 80
_LLD = 0.69
_ULD = 1.768
_DETECTORSLIT = out
_AUX1 = 0
_AUX2 = 0
_AUX3 = 0
_TIMESTARTED = 5016
_TEMP_RATE = 0
_TEMP_DELAY = 0
_KV = 40
_MA = 40
_RANGE_WL = 1.5406
_3DPLANE = 0
_V4_COUNTERS_MASK = 1
_V4_DRIVES_MASK = 0
_V4_ENCODERS_MASK = 0
_2THETACOUNTS = 1
; PHI  Cnt1_D1
   0.0000        625

; Data for range 218
_DRIVE = PHI
_STEPTIME = 5
_STEPSIZE = 5
_STEPMODE = S
_START = 0
_THETA = 29.145
_2THETA = 58.29
_KHI = 35
_PHI = 0
_X = 0
_Y = 0
_Z = 0
_DIVERGENCE = 0.2
_ANTISCATTER = 0.2
_DETECTOR = 1
; Detector type : Scintillation counter
_HV = 670
_GAIN = 80
_LLD = 0.69
_ULD = 1.768
_DETECTORSLIT = out
_AUX1 = 0
_AUX2 = 0
_AUX3 = 0
_TIMESTARTED = 5027
_TEMP_RATE = 0
_TEMP_DELAY = 0
_KV = 40
_MA = 40
_RANGE_WL = 1.5406
_3DPLANE = 0
_V4_COUNTERS_MASK = 1
_V4_DRIVES_MASK = 0
_V4_ENCODERS_MASK = 0
_2THETACOUNTS = 1
; PHI  Cnt1_D1
   0.0000        655

; Data for range 219
_DRIVE = PHI
_STEPTIME = 5
_STEPSIZE = 5
_STEPMODE = S
_START = 0
_THETA = 29.145
_2THETA = 58.29
_KHI = 40
_PHI = 0
_X = 0
_Y = 0
_Z = 0
_DIVERGENCE = 0.2
_ANTISCATTER = 0.2
_DETECTOR = 1
; Detector type : Scintillation counter
_HV = 670
_GAIN = 80
_LLD = 0.69
_ULD = 1.768
_DETECTORSLIT = out
_AUX1 = 0
_AUX2 = 0
_AUX3 = 0
_TIMESTARTED = 5037
_TEMP_RATE = 0
_TEMP_DELAY = 0
_KV = 40
_MA = 40
_RANGE_WL = 1.5406
_3DPLANE = 0
_V4_COUNTERS_MASK = 1
_V4_DRIVES_MASK = 0
_V4_ENCODERS_MASK = 0
_2THETACOUNTS = 1
; PHI  Cnt1_D1
   0.0000        692

; Data for range 220
_DRIVE = PHI
_STEPTIME = 5
_STEPSIZE = 5
_STEPMODE = S
_START = 0
_THETA = 29.145
_2THETA = 58.29
_KHI = 45
_PHI = 0
_X = 0
_Y = 0
_Z = 0
_DIVERGENCE = 0.2
_ANTISCATTER = 0.2
_DETECTOR = 1
; Detector type : Scintillation counter
_HV = 670
_GAIN = 80
_LLD = 0.69
_ULD = 1.768
_DETECTORSLIT = out
_AUX1 = 0
_AUX2 = 0
_AUX3 = 0
_TIMESTARTED = 5048
_TEMP_RATE = 0
_TEMP_DELAY = 0
_KV = 40
_MA = 40
_RANGE_WL = 1.5406
_3DPLANE = 0
_V4_COUNTERS_MASK = 1
_V4_DRIVES_MASK = 0
_V4_ENCODERS_MASK = 0
_2THETACOUNTS = 1
; PHI  Cnt1_D1
   0.0000        678

; Data for range 221
_DRIVE = PHI
_STEPTIME = 5
_STEPSIZE = 5
_STEPMODE = S
_START = 0
_THETA = 29.145
_2THETA = 58.29
_KHI = 50
_PHI = 0
_X = 0
_Y = 0
_Z = 0
_DIVERGENCE = 0.2
_ANTISCATTER = 0.2
_DETECTOR = 1
; Detector type : Scintillation counter
_HV = 670
_GAIN = 80
_LLD = 0.69
_ULD = 1.768
_DETECTORSLIT = out
_AUX1 = 0
_AUX2 = 0
_AUX3 = 0
_TIMESTARTED = 5058
_TEMP_RATE = 0
_TEMP_DELAY = 0
_KV = 40
_MA = 40
_RANGE_WL = 1.5406
_3DPLANE = 0
_V4_COUNTERS_MASK = 1
_V4_DRIVES_MASK = 0
_V4_ENCODERS_MASK = 0
_2THETACOUNTS = 1
; PHI  Cnt1_D1
   0.0000        681

; Data for range 222
_DRIVE = PHI
_STEPTIME = 5
_STEPSIZE = 5
_STEPMODE = S
_START = 0
_THETA = 29.145
_2THETA = 58.29
_KHI = 55
_PHI = 0
_X = 0
_Y = 0
_Z = 0
_DIVERGENCE = 0.2
_ANTISCATTER = 0.2
_DETECTOR = 1
; Detector type : Scintillation counter
_HV = 670
_GAIN = 80
_LLD = 0.69
_ULD = 1.768
_DETECTORSLIT = out
_AUX1 = 0
_AUX2 = 0
_AUX3 = 0
_TIMESTARTED = 5067
_TEMP_RATE = 0
_TEMP_DELAY = 0
_KV = 40
_MA = 40
_RANGE_WL = 1.5406
_3DPLANE = 0
_V4_COUNTERS_MASK = 1
_V4_DRIVES_MASK = 0
_V4_ENCODERS_MASK = 0
_2THETACOUNTS = 1
; PHI  Cnt1_D1
   0.0000        662

; Data for range 223
_DRIVE = PHI
_STEPTIME = 5
_STEPSIZE = 5
_STEPMODE = S
_START = 0
_THETA = 29.145
_2THETA = 58.29
_KHI = 60
_PHI = 0
_X = 0
_Y = 0
_Z = 0
_DIVERGENCE = 0.2
_ANTISCATTER = 0.2
_DETECTOR = 1
; Detector type : Scintillation counter
_HV = 670
_GAIN = 80
_LLD = 0.69
_ULD = 1.768
_DETECTORSLIT = out
_AUX1 = 0
_AUX2 = 0
_AUX3 = 0
_TIMESTARTED = 5078
_TEMP_RATE = 0
_TEMP_DELAY = 0
_KV = 40
_MA = 40
_RANGE_WL = 1.5406
_3DPLANE = 0
_V4_COUNTERS_MASK = 1
_V4_DRIVES_MASK = 0
_V4_ENCODERS_MASK = 0
_2THETACOUNTS = 1
; PHI  Cnt1_D1
   0.0000        588

; Data for range 224
_DRIVE = PHI
_STEPTIME = 5
_STEPSIZE = 5
_STEPMODE = S
_START = 0
_THETA = 29.145
_2THETA = 58.29
_KHI = 65
_PHI = 0
_X = 0
_Y = 0
_Z = 0
_DIVERGENCE = 0.2
_ANTISCATTER = 0.2
_DETECTOR = 1
; Detector type : Scintillation counter
_HV = 670
_GAIN = 80
_LLD = 0.69
_ULD = 1.768
_DETECTORSLIT = out
_AUX1 = 0
_AUX2 = 0
_AUX3 = 0
_TIMESTARTED = 5088
_TEMP_RATE = 0
_TEMP_DELAY = 0
_KV = 40
_MA = 40
_RANGE_WL = 1.5406
_3DPLANE = 0
_V4_COUNTERS_MASK = 1
_V4_DRIVES_MASK = 0
_V4_ENCODERS_MASK = 0
_2THETACOUNTS = 1
; PHI  Cnt1_D1
   0.0000        542

; Data for range 225
_DRIVE = PHI
_STEPTIME = 5
_STEPSIZE = 5
_STEPMODE = S
_START = 0
_THETA = 29.145
_2THETA = 58.29
_KHI = 70
_PHI = 0
_X = 0
_Y = 0
_Z = 0
_DIVERGENCE = 0.2
_ANTISCATTER = 0.2
_DETECTOR = 1
; Detector type : Scintillation counter
_HV = 670
_GAIN = 80
_LLD = 0.69
_ULD = 1.768
_DETECTORSLIT = out
_AUX1 = 0
_AUX2 = 0
_AUX3 = 0
_TIMESTARTED = 5097
_TEMP_RATE = 0
_TEMP_DELAY = 0
_KV = 40
_MA = 40
_RANGE_WL = 1.5406
_3DPLANE = 0
_V4_COUNTERS_MASK = 1
_V4_DRIVES_MASK = 0
_V4_ENCODERS_MASK = 0
_2THETACOUNTS = 1
; PHI  Cnt1_D1
   0.0000        470