File: T12-RT-1.uxd
;content of C:\Users\USER\AppData\Local\Temp\92fetmp-1501843503.raw - (Diffrac Plus V4 file)
_FILEVERSION = 3
_SAMPLE
_+SAMPLE
_USER = Lab Manager
_GONIOMETER_CODE = 20
_STAGE_CODE = 4
; Goniometer : D8 theta/2theta, stage : Open eulerian craddle
_SAMPLE_CHANGER_CODE = 0
_ATTACHMENTS_CODE = 0
_GONIOMETER_RADIUS = 370
_MONOCHROMATOR = 0
; Incident beam monochromator : None
_BETA_FILTER = N
_FIXED_ANTISLIT = 18
_ANALYZER_CODE = 0
; Received beam analyzer : None
_DATEMEASURED = 10-Oct-2024 09:13:58
_RUNTIME = 19492.83
_WL_UNIT = A
_WL1 = 2.2897
_WL2 = 2.29361
_WL3 = 2.08487
_WLRATIO = 0.5
_ANODE = Cr
_V4_INF_USER = Lab Manager
_V4_INF_CREATOR = BrmlToV4Converter
_V4_INF_CREATOR_VERSION = 7.5.2.0
_V4_INF_WIZARD_PLUGIN_TYPE = TEXTURE
_V4_INF_TEXTURE_MEAS_GUID = 83aa8a6d-6486-4ad4-8325-fad7fa860a92
_V4_INF_TEXTURE_MEAS_ID = 1729179246

;content of C:\Users\USER\AppData\Local\Temp\92fetmp-1501843503.raw - (Diffrac Plus V4 file)
_FILEVERSION = 3
_SAMPLE
_+SAMPLE
_USER = Lab Manager
_GONIOMETER_CODE = 20
_STAGE_CODE = 4
; Goniometer : D8 theta/2theta, stage : Open eulerian craddle
_SAMPLE_CHANGER_CODE = 0
_ATTACHMENTS_CODE = 0
_GONIOMETER_RADIUS = 370
_MONOCHROMATOR = 0
; Incident beam monochromator : None
_BETA_FILTER = N
_FIXED_ANTISLIT = 18
_ANALYZER_CODE = 0
; Received beam analyzer : None
_DATEMEASURED = 10-Oct-2024 09:13:58
_RUNTIME = 19492.83
_WL_UNIT = A
_WL1 = 2.2897
_WL2 = 2.29361
_WL3 = 2.08487
_WLRATIO = 0.5
_ANODE = Cr
_V4_INF_USER = Lab Manager
_V4_INF_CREATOR = BrmlToV4Converter
_V4_INF_CREATOR_VERSION = 7.5.2.0
_V4_INF_WIZARD_PLUGIN_TYPE = TEXTURE
_V4_INF_TEXTURE_MEAS_GUID = 83aa8a6d-6486-4ad4-8325-fad7fa860a92
_V4_INF_TEXTURE_MEAS_ID = 1729179246

; Data for range 1
_DRIVE = COUPLED
_STEPTIME = 3
_STEPSIZE = 5
_STEPMODE = C
_START = 0
_THETA = 24.15
_2THETA = 48.3
_KHI = 0
_PHI = 0
_X = 10.5
_Y = -26
_Z = 0.5
_DETECTORSLIT = out
_TIMESTARTED = 0
_KV = 30
_MA = 40
_RANGE_WL = 2.2897
_3DPLANE = 0
_V4_PSD2THETA = 9999
_V4_PSDCHANNEL1 = 0
_V4_PSDAPERTURE = 6.075
_V4_PSDTYPE = 5
_V4_PSDFIXED = 0
_V4_COUNTERS_MASK = 1
_V4_DRIVES_MASK = 0
_V4_ENCODERS_MASK = 0
_2THETACOUNTS = 1
; 2THETA	Cnt2_D1
0.000000	20880.8
5.000000	21051.52
10	20904.28
15	20703.04
20	20817.8
25	20934.56
30	20756.32
35	20691.08
40	20478.84
45	20353.6
50	19796.36
55	19459.12
60	19197.88
65	18783.64
70	18366.4
75	18117.16
80	17977.92
85	17678.68
90	17469.44
95	17572.2
100	17537.96
105	17573.72
110	17919.48
115	18027.2
120	18419.0
125	18839.8
130	19642.52
135	19844.28
140	20373.04
145	20411.8
150	20718.56
155	21027.32
160	21469.08
165	21694.84
170	21822.6
175	21963.36
180	22296.12
185	22616.88
190	22616.64
195	22202.4
200	22318.16
205	22790.92
210	22392.68
215	22566.44
220	22609.2
225	22752.96
230	22703.72
235	22100.48
240	21935.2
245	21523.0
250	21280.8
255	20717.52
260	20365.28
265	20127.04
270	19967.8
275	19892.56
280	19815.32
285	20123.08
290	19924.84
295	20417.6
300	20743.36
305	21024.12
310	21232.88
315	21434.64
320	21827.4
325	22094.16
330	22095.92
335	21883.68
340	21687.44
345	21320.2
350	21345.96
355	21583.72

; Data for range 4
_DRIVE = COUPLED
_STEPTIME = 3
_STEPSIZE = 5
_STEPMODE = C
_START = 0
_THETA = 24.15
_2THETA = 48.3
_KHI = 5
_PHI = 0
_X = 10.5
_Y = -26
_Z = 0.5
_DETECTORSLIT = out
_TIMESTARTED = 246.4798
_KV = 30
_MA = 40
_RANGE_WL = 2.2897
_3DPLANE = 0
_V4_PSD2THETA = 9999
_V4_PSDCHANNEL1 = 0
_V4_PSDAPERTURE = 6.075
_V4_PSDTYPE = 5
_V4_PSDFIXED = 0
_V4_COUNTERS_MASK = 1
_V4_DRIVES_MASK = 0
_V4_ENCODERS_MASK = 0
_2THETACOUNTS = 1
; 2THETA	Cnt2_D1
0.000000	16959.7
5.000000	16280.5
10	16392.2
15	15576
20	15121.7
25	14743.48
30	14245.2
35	13650
40	13489.7
45	12903.5
50	12469.2
55	12220.96
60	11893.7
65	11752.5
70	11348.2
75	11053.9
80	11001.7
85	11158.4
90	10764.2
95	10987.9
100	11088.68
105	11313.4
110	11542.2
115	11737.92
120	12190.7
125	12918.4
130	13560.16
135	13665.9
140	13682.7
145	13903.4
150	14091.1
155	14164.9
160	14337.64
165	14222.4
170	14345.1
175	14003.9
180	14176.6
185	14878.4
190	14700.1
195	14980.9
200	15599.6
205	16167.36
210	16896.1
215	17585.9
220	18245.6
225	18696.3
230	18227.1
235	18393.84
240	18091.6
245	17826.3
250	17584.08
255	17344.8
260	16925.6
265	16432.32
270	16277.1
275	16486.8
280	16041.6
285	16271.3
290	16583.1
295	16674.8
300	16888.5
305	16914.3
310	17077.04
315	17012.8
320	17294.5
325	17180.28
330	17590
335	17306.8
340	17440.52
345	17407.3
350	17390
355	17609.8

; Data for range 7
_DRIVE = COUPLED
_STEPTIME = 3
_STEPSIZE = 5
_STEPMODE = C
_START = 0
_THETA = 24.15
_2THETA = 48.3
_KHI = 10
_PHI = 0
_X = 10.5
_Y = -26
_Z = 0.5
_DETECTORSLIT = out
_TIMESTARTED = 488.1343
_KV = 30
_MA = 40
_RANGE_WL = 2.2897
_3DPLANE = 0
_V4_PSD2THETA = 9999
_V4_PSDCHANNEL1 = 0
_V4_PSDAPERTURE = 6.075
_V4_PSDTYPE = 5
_V4_PSDFIXED = 0
_V4_COUNTERS_MASK = 1
_V4_DRIVES_MASK = 0
_V4_ENCODERS_MASK = 0
_2THETACOUNTS = 1
; 2THETA	Cnt2_D1
0.000000	8110.16
5.000000	8069.32
10	7810.48
15	7404.64
20	7194.8
25	6984.96
30	6929.12
35	6577.28
40	6441.44
45	6412.6
50	6165.76
55	6063.92
60	6226.08
65	6099.24
70	6100.4
75	6046.56
80	6446.72
85	5902.88
90	6120.04
95	6091.2
100	6294.36
105	6192.52
110	6604.68
115	6827.84
120	6905.0
125	6730.16
130	7124.32
135	7304.48
140	7295.64
145	7280.8
150	7201.96
155	7178.12
160	7468.28
165	7320.44
170	7301.6
175	7291.76
180	7172.92
185	7418.08
190	7753.24
195	8000.4
200	8410.56
205	8635.72
210	9332.88
215	9809.04
220	10220.2
225	10313.36
230	10530.52
235	10391.68
240	9929.84
245	9955.0
250	9720.16
255	9209.32
260	9109.48
265	9032.64
270	8785.8
275	8914.96
280	8770.12
285	8554.28
290	8583.44
295	8674.6
300	8619.76
305	8498.92
310	8551.08
315	8529.24
320	8304.4
325	8594.56
330	8328.72
335	8499.88
340	8298.04
345	8279.2
350	8412.36
355	8284.52

; Data for range 10
_DRIVE = COUPLED
_STEPTIME = 3
_STEPSIZE = 5
_STEPMODE = C
_START = 0
_THETA = 24.15
_2THETA = 48.3
_KHI = 15
_PHI = 0
_X = 10.5
_Y = -26
_Z = 0.5
_DETECTORSLIT = out
_TIMESTARTED = 729.9398
_KV = 30
_MA = 40
_RANGE_WL = 2.2897
_3DPLANE = 0
_V4_PSD2THETA = 9999
_V4_PSDCHANNEL1 = 0
_V4_PSDAPERTURE = 6.075
_V4_PSDTYPE = 5
_V4_PSDFIXED = 0
_V4_COUNTERS_MASK = 1
_V4_DRIVES_MASK = 0
_V4_ENCODERS_MASK = 0
_2THETACOUNTS = 1
; 2THETA	Cnt2_D1
0.000000	4106.11
5.000000	4040.21
10	3859.32
15	4027.43
20	3844.53
25	3895.64
30	3792.75
35	3803.85
40	3690.96
45	3908.07
50	3752.17
55	3932.28
60	3787.39
65	3555.49
70	3881.6
75	3674.71
80	3814.81
85	3766.92
90	3745.03
95	3807.13
100	3902.24
105	3830.35
110	3904.45
115	3951.56
120	3776.67
125	3814.77
130	4060.88
135	3881.99
140	3784.09
145	3681.2
150	3789.31
155	3747.41
160	3990.52
165	4010.63
170	3906.73
175	4111.84
180	4128.95
185	4097.05
190	3633.16
195	3708.27
200	3615.37
205	3934.48
210	4207.59
215	4486.69
220	4812.8
225	4741.91
230	5029.01
235	5036.12
240	4855.23
245	4905.33
250	4874.44
255	4848.55
260	4842.65
265	4606.76
270	4505.87
275	4439.97
280	4400.08
285	4583.19
290	4600.29
295	4698.4
300	4243.51
305	4271.61
310	4232.72
315	4351.83
320	4194.93
325	4257.04
330	4078.15
335	4213.25
340	3994.36
345	4324.47
350	4151.57
355	4276.68

; Data for range 13
_DRIVE = COUPLED
_STEPTIME = 3
_STEPSIZE = 5
_STEPMODE = C
_START = 0
_THETA = 24.15
_2THETA = 48.3
_KHI = 20
_PHI = 0
_X = 10.5
_Y = -26
_Z = 0.5
_DETECTORSLIT = out
_TIMESTARTED = 971.6857
_KV = 30
_MA = 40
_RANGE_WL = 2.2897
_3DPLANE = 0
_V4_PSD2THETA = 9999
_V4_PSDCHANNEL1 = 0
_V4_PSDAPERTURE = 6.075
_V4_PSDTYPE = 5
_V4_PSDFIXED = 0
_V4_COUNTERS_MASK = 1
_V4_DRIVES_MASK = 0
_V4_ENCODERS_MASK = 0
_2THETACOUNTS = 1
; 2THETA	Cnt2_D1
0.000000	2187.77
5.000000	2260.55
10	2254.32
15	2076.09
20	2286.87
25	2375.64
30	2124.41
35	2226.19
40	2073.96
45	2261.73
50	2046.51
55	2158.28
60	1963.05
65	1963.83
70	1938.6
75	1838.37
80	1932.15
85	1996.92
90	2138.69
95	2093.47
100	1907.24
105	2013.01
110	2069.79
115	1919.56
120	2111.33
125	2133.11
130	1930.88
135	2064.65
140	1969.43
145	1950.2
150	2121.97
155	2442.75
160	2400.52
165	2377.29
170	2638.07
175	2418.84
180	2498.61
185	2354.39
190	2062.16
195	1982.93
200	1669.71
205	1821.48
210	1713.25
215	1901.03
220	2002.8
225	2245.57
230	2196.35
235	2359.12
240	2410.89
245	2347.67
250	2504.44
255	2353.21
260	2612.99
265	2550.76
270	2607.53
275	2571.31
280	2270.08
285	2469.85
290	2383.63
295	2414.4
300	2435.17
305	2318.95
310	2244.72
315	2279.49
320	2426.27
325	2273.04
330	2464.81
335	2291.59
340	2270.36
345	2530.13
350	2692.91
355	2528.68

; Data for range 16
_DRIVE = COUPLED
_STEPTIME = 3
_STEPSIZE = 5
_STEPMODE = C
_START = 0
_THETA = 24.15
_2THETA = 48.3
_KHI = 25
_PHI = 0
_X = 10.5
_Y = -26
_Z = 0.5
_DETECTORSLIT = out
_TIMESTARTED = 1213.915
_KV = 30
_MA = 40
_RANGE_WL = 2.2897
_3DPLANE = 0
_V4_PSD2THETA = 9999
_V4_PSDCHANNEL1 = 0
_V4_PSDAPERTURE = 6.075
_V4_PSDTYPE = 5
_V4_PSDFIXED = 0
_V4_COUNTERS_MASK = 1
_V4_DRIVES_MASK = 0
_V4_ENCODERS_MASK = 0
_2THETACOUNTS = 1
; 2THETA	Cnt2_D1
0.000000	1211.92
5.000000	1380.84
10	1271.76
15	1232.68
20	1404.6
25	1224.52
30	1375.44
35	1183.36
40	1070.28
45	1091.2
50	983.12
55	858.04
60	1190.96
65	828.88
70	946.8
75	787.72
80	919.64
85	767.56
90	855.48
95	867.4
100	755.32
105	848.24
110	956.16
115	930.08
120	993.0
125	1162.92
130	1051.84
135	1073.76
140	1229.68
145	1112.6
150	1343.52
155	1469.44
160	1673.36
165	1919.28
170	1741.2
175	1768.12
180	1717.04
185	1350.96
190	1135.88
195	961.8
200	910.72
205	1040.64
210	900.56
215	875.48
220	721.4
225	939.32
230	1029.24
235	895.16
240	1107.08
245	1082.0
250	1047.92
255	1141.84
260	1182.76
265	1174.68
270	1079.6
275	1034.52
280	1087.44
285	1091.36
290	1217.28
295	1138.2
300	1042.12
305	1171.04
310	1301.96
315	1221.88
320	1476.8
325	1387.72
330	1520.64
335	1565.56
340	1686.48
345	1723.4
350	1761.32
355	1812.24

; Data for range 19
_DRIVE = COUPLED
_STEPTIME = 3
_STEPSIZE = 5
_STEPMODE = C
_START = 0
_THETA = 24.15
_2THETA = 48.3
_KHI = 30
_PHI = 0
_X = 10.5
_Y = -26
_Z = 0.5
_DETECTORSLIT = out
_TIMESTARTED = 1455.483
_KV = 30
_MA = 40
_RANGE_WL = 2.2897
_3DPLANE = 0
_V4_PSD2THETA = 9999
_V4_PSDCHANNEL1 = 0
_V4_PSDAPERTURE = 6.075
_V4_PSDTYPE = 5
_V4_PSDFIXED = 0
_V4_COUNTERS_MASK = 1
_V4_DRIVES_MASK = 0
_V4_ENCODERS_MASK = 0
_2THETACOUNTS = 1
; 2THETA	Cnt2_D1
0.000000	593.96
5.000000	637.92
10	519.88
15	436.84
20	468.8
25	442.76
30	298.72
35	408.68
40	477.64
45	430.6
50	272.56
55	196.52
60	78.48
65	0
70	122.4
75	120.36
80	289.32
85	162.28
90	250.24
95	206.2
100	124.16
105	225.12
110	268.08
115	446.04
120	310.0
125	354.96
130	498.92
135	245.88
140	542.84
145	719.8
150	925.76
155	1017.72
160	1311.68
165	1350.64
170	1255.6
175	1241.56
180	1173.52
185	889.48
190	468.44
195	336.4
200	313.36
205	351.32
210	302.28
215	239.24
220	475.2
225	288.16
230	429.12
235	310.08
240	384.04
245	533.0
250	374.96
255	501.92
260	438.88
265	684.84
270	640.8
275	541.76
280	653.72
285	482.68
290	628.64
295	612.6
300	680.56
305	710.52
310	927.48
315	944.44
320	1115.4
325	900.36
330	1009.32
335	1269.28
340	1200.24
345	1303.2
350	1575.16
355	1524.12

; Data for range 22
_DRIVE = COUPLED
_STEPTIME = 3
_STEPSIZE = 5
_STEPMODE = C
_START = 0
_THETA = 24.15
_2THETA = 48.3
_KHI = 35
_PHI = 0
_X = 10.5
_Y = -26
_Z = 0.5
_DETECTORSLIT = out
_TIMESTARTED = 1697.892
_KV = 30
_MA = 40
_RANGE_WL = 2.2897
_3DPLANE = 0
_V4_PSD2THETA = 9999
_V4_PSDCHANNEL1 = 0
_V4_PSDAPERTURE = 6.075
_V4_PSDTYPE = 5
_V4_PSDFIXED = 0
_V4_COUNTERS_MASK = 1
_V4_DRIVES_MASK = 0
_V4_ENCODERS_MASK = 0
_2THETACOUNTS = 1
; 2THETA	Cnt2_D1
0.000000	746.827
5.000000	649.653
10	644.48
15	491.307
20	596.133
25	545.96
30	561.787
35	292.613
40	642.44
45	439.267
50	456.093
55	339.92
60	295.747
65	274.573
70	175.4
75	183.227
80	361.053
85	352.88
90	418.707
95	402.533
100	492.36
105	357.187
110	413.013
115	339.84
120	362.667
125	555.493
130	551.32
135	634.147
140	768.973
145	893.8
150	997.627
155	1018.45
160	1205.28
165	1391.11
170	1092.93
175	1022.76
180	969.587
185	851.413
190	516.24
195	466.067
200	245.893
205	514.72
210	565.547
215	445.373
220	432.2
225	328.027
230	456.853
235	453.68
240	441.507
245	427.333
250	584.16
255	494.987
260	695.813
265	603.64
270	649.467
275	500.293
280	670.12
285	655.947
290	634.773
295	536.6
300	593.427
305	714.253
310	955.08
315	658.907
320	673.733
325	857.56
330	804.387
335	1004.21
340	819.04
345	1015.87
350	1302.69
355	1199.52

; Data for range 25
_DRIVE = COUPLED
_STEPTIME = 3
_STEPSIZE = 5
_STEPMODE = C
_START = 0
_THETA = 24.15
_2THETA = 48.3
_KHI = 40
_PHI = 0
_X = 10.5
_Y = -26
_Z = 0.5
_DETECTORSLIT = out
_TIMESTARTED = 1940.187
_KV = 30
_MA = 40
_RANGE_WL = 2.2897
_3DPLANE = 0
_V4_PSD2THETA = 9999
_V4_PSDCHANNEL1 = 0
_V4_PSDAPERTURE = 6.075
_V4_PSDTYPE = 5
_V4_PSDFIXED = 0
_V4_COUNTERS_MASK = 1
_V4_DRIVES_MASK = 0
_V4_ENCODERS_MASK = 0
_2THETACOUNTS = 1
; 2THETA	Cnt2_D1
0.000000	809.6
5.000000	936.2
10	861.8
15	917.4
20	832.0
25	914.6
30	812.2
35	765.8
40	1002.4
45	778.0
50	595.6
55	597.2
60	670.8
65	648.4
70	405.0
75	515.6
80	367.2
85	584.8
90	414.4
95	729.0
100	563.6
105	626.2
110	523.8
115	830.4
120	828.0
125	784.6
130	861.2
135	1053.8
140	1144.4
145	1383.0
150	1178.6
155	1494.2
160	1431.8
165	1426.4
170	1654.0
175	1340.6
180	1123.2
185	696.8
190	810.4
195	575.0
200	546.6
205	624.2
210	593.8
215	497.4
220	535.0
225	467.6
230	659.2
235	707.8
240	705.4
245	581.0
250	547.6
255	556.2
260	701.8
265	591.4
270	547.0
275	581.6
280	799.2
285	766.8
290	762.4
295	865.0
300	692.6
305	933.2
310	726.8
315	761.4
320	725.0
325	662.6
330	695.2
335	732.8
340	732.4
345	1018.0
350	1032.6
355	1131.2

; Data for range 28
_DRIVE = COUPLED
_STEPTIME = 3
_STEPSIZE = 5
_STEPMODE = C
_START = 0
_THETA = 24.15
_2THETA = 48.3
_KHI = 45
_PHI = 0
_X = 10.5
_Y = -26
_Z = 0.5
_DETECTORSLIT = out
_TIMESTARTED = 2182.327
_KV = 30
_MA = 40
_RANGE_WL = 2.2897
_3DPLANE = 0
_V4_PSD2THETA = 9999
_V4_PSDCHANNEL1 = 0
_V4_PSDAPERTURE = 6.075
_V4_PSDTYPE = 5
_V4_PSDFIXED = 0
_V4_COUNTERS_MASK = 1
_V4_DRIVES_MASK = 0
_V4_ENCODERS_MASK = 0
_2THETACOUNTS = 1
; 2THETA	Cnt2_D1
0.000000	981.613
5.000000	1164.23
10	1047.84
15	1021.45
20	1111.07
25	1148.68
30	1125.29
35	1027.91
40	1022.52
45	873.133
50	629.747
55	611.36
60	702.973
65	625.587
70	576.2
75	494.813
80	544.427
85	583.04
90	240.653
95	446.267
100	682.88
105	580.493
110	712.107
115	736.72
120	939.333
125	951.947
130	968.56
135	1259.17
140	1445.79
145	1631.4
150	1630.01
155	1378.63
160	1844.24
165	1654.85
170	1658.47
175	1511.08
180	1268.69
185	1173.31
190	800.92
195	787.533
200	740.147
205	762.76
210	870.373
215	809.987
220	855.6
225	909.213
230	734.827
235	775.44
240	739.053
245	730.667
250	640.28
255	723.893
260	712.507
265	706.12
270	700.733
275	843.347
280	718.96
285	987.573
290	713.187
295	781.8
300	763.413
305	810.027
310	781.64
315	1026.25
320	861.867
325	829.48
330	852.093
335	846.707
340	747.32
345	1011.93
350	1034.55
355	1331.16

; Data for range 31
_DRIVE = COUPLED
_STEPTIME = 3
_STEPSIZE = 5
_STEPMODE = C
_START = 0
_THETA = 24.15
_2THETA = 48.3
_KHI = 50
_PHI = 0
_X = 10.5
_Y = -26
_Z = 0.5
_DETECTORSLIT = out
_TIMESTARTED = 2423.761
_KV = 30
_MA = 40
_RANGE_WL = 2.2897
_3DPLANE = 0
_V4_PSD2THETA = 9999
_V4_PSDCHANNEL1 = 0
_V4_PSDAPERTURE = 6.075
_V4_PSDTYPE = 5
_V4_PSDFIXED = 0
_V4_COUNTERS_MASK = 1
_V4_DRIVES_MASK = 0
_V4_ENCODERS_MASK = 0
_2THETACOUNTS = 1
; 2THETA	Cnt2_D1
0.000000	1431.83
5.000000	1367.65
10	1662.48
15	1293.31
20	1636.13
25	1610.96
30	1378.79
35	1483.61
40	1346.44
45	1421.27
50	1092.09
55	1035.92
60	1085.75
65	857.573
70	1050.4
75	850.227
80	963.053
85	999.88
90	912.707
95	856.533
100	887.36
105	1086.19
110	1092.01
115	980.84
120	1252.67
125	1362.49
130	1430.32
135	1833.15
140	1898.97
145	2224.8
150	2219.63
155	2472.45
160	2334.28
165	2509.11
170	2289.93
175	1972.76
180	1889.59
185	1746.41
190	1641.24
195	1305.07
200	1420.89
205	1429.72
210	1300.55
215	1259.37
220	1205.2
225	1197.03
230	1011.85
235	1175.68
240	946.507
245	951.333
250	1057.16
255	951.987
260	818.813
265	922.64
270	927.467
275	1060.29
280	970.12
285	982.947
290	908.773
295	879.6
300	936.427
305	877.253
310	936.08
315	1041.91
320	1021.73
325	1045.56
330	1174.39
335	1166.21
340	1175.04
345	1222.87
350	1416.69
355	1604.52

; Data for range 34
_DRIVE = COUPLED
_STEPTIME = 3
_STEPSIZE = 5
_STEPMODE = C
_START = 0
_THETA = 24.15
_2THETA = 48.3
_KHI = 55
_PHI = 0
_X = 10.5
_Y = -26
_Z = 0.5
_DETECTORSLIT = out
_TIMESTARTED = 2665.932
_KV = 30
_MA = 40
_RANGE_WL = 2.2897
_3DPLANE = 0
_V4_PSD2THETA = 9999
_V4_PSDCHANNEL1 = 0
_V4_PSDAPERTURE = 6.075
_V4_PSDTYPE = 5
_V4_PSDFIXED = 0
_V4_COUNTERS_MASK = 1
_V4_DRIVES_MASK = 0
_V4_ENCODERS_MASK = 0
_2THETACOUNTS = 1
; 2THETA	Cnt2_D1
0.000000	1997.53
5.000000	2123.07
10	2117.6
15	2144.13
20	2043.67
25	2119.2
30	1831.73
35	1690.27
40	1715.8
45	1424.33
50	1303.87
55	1071.4
60	1078.93
65	939.467
70	1148.0
75	1093.53
80	1035.07
85	792.6
90	782.133
95	1067.67
100	1009.2
105	1025.73
110	1124.27
115	1166.8
120	1407.33
125	1395.87
130	1648.4
135	1972.93
140	2328.47
145	2586.0
150	2995.53
155	2966.07
160	3168.6
165	3392.13
170	3202.67
175	3119.2
180	2847.73
185	2658.27
190	2388.8
195	2125.33
200	2095.87
205	1981.4
210	1923.93
215	1677.47
220	1394.0
225	1370.53
230	1283.07
235	1104.6
240	1075.13
245	1104.67
250	1079.2
255	1091.73
260	1142.27
265	753.8
270	948.333
275	765.867
280	807.4
285	990.933
290	834.467
295	974.0
300	986.533
305	936.067
310	1203.6
315	1210.13
320	1125.67
325	1224.2
330	1218.73
335	1431.27
340	1535.8
345	1646.33
350	1703.87
355	1893.4

; Data for range 37
_DRIVE = COUPLED
_STEPTIME = 3
_STEPSIZE = 5
_STEPMODE = C
_START = 0
_THETA = 24.15
_2THETA = 48.3
_KHI = 60
_PHI = 0
_X = 10.5
_Y = -26
_Z = 0.5
_DETECTORSLIT = out
_TIMESTARTED = 2907.851
_KV = 30
_MA = 40
_RANGE_WL = 2.2897
_3DPLANE = 0
_V4_PSD2THETA = 9999
_V4_PSDCHANNEL1 = 0
_V4_PSDAPERTURE = 6.075
_V4_PSDTYPE = 5
_V4_PSDFIXED = 0
_V4_COUNTERS_MASK = 1
_V4_DRIVES_MASK = 0
_V4_ENCODERS_MASK = 0
_2THETACOUNTS = 1
; 2THETA	Cnt2_D1
0.000000	2199.75
5.000000	2111.49
10	2218.24
15	2232.99
20	2073.73
25	1793.48
30	1488.23
35	1289.97
40	1155.72
45	1117.47
50	864.213
55	787.96
60	635.707
65	722.453
70	625.2
75	788.947
80	511.693
85	751.44
90	451.187
95	610.933
100	593.68
105	593.427
110	747.173
115	727.92
120	884.667
125	1019.41
130	1283.16
135	1569.91
140	1804.65
145	2252.4
150	2650.15
155	2832.89
160	2990.64
165	3391.39
170	3411.13
175	3044.88
180	2889.63
185	2665.37
190	2483.12
195	2102.87
200	2059.61
205	1857.36
210	1754.11
215	1469.85
220	1689.6
225	1273.35
230	1252.09
235	1090.84
240	1074.59
245	996.333
250	1020.08
255	904.827
260	889.573
265	743.32
270	811.067
275	802.813
280	1125.56
285	730.307
290	899.053
295	1007.8
300	947.547
305	1010.29
310	1043.04
315	1075.79
320	1409.53
325	1450.28
330	1712.03
335	1749.77
340	1891.52
345	2124.27
350	2324.01
355	2200.76

; Data for range 40
_DRIVE = COUPLED
_STEPTIME = 3
_STEPSIZE = 5
_STEPMODE = C
_START = 0
_THETA = 24.15
_2THETA = 48.3
_KHI = 65
_PHI = 0
_X = 10.5
_Y = -26
_Z = 0.5
_DETECTORSLIT = out
_TIMESTARTED = 3150.012
_KV = 30
_MA = 40
_RANGE_WL = 2.2897
_3DPLANE = 0
_V4_PSD2THETA = 9999
_V4_PSDCHANNEL1 = 0
_V4_PSDAPERTURE = 6.075
_V4_PSDTYPE = 5
_V4_PSDFIXED = 0
_V4_COUNTERS_MASK = 1
_V4_DRIVES_MASK = 0
_V4_ENCODERS_MASK = 0
_2THETACOUNTS = 1
; 2THETA	Cnt2_D1
0.000000	1438.61
5.000000	1490.23
10	1211.84
15	1193.45
20	1055.07
25	1061.68
30	989.293
35	664.907
40	660.52
45	618.133
50	503.747
55	537.36
60	445.973
65	326.587
70	473.2
75	378.813
80	464.427
85	256.04
90	351.653
95	337.267
100	427.88
105	300.493
110	397.107
115	545.72
120	531.333
125	669.947
130	1123.56
135	1253.17
140	1618.79
145	1788.4
150	1868.01
155	1920.63
160	2063.24
165	2107.85
170	2175.47
175	1982.08
180	1733.69
185	1691.31
190	1431.92
195	1440.53
200	1650.15
205	1451.76
210	1333.37
215	1303.99
220	1219.6
225	1078.21
230	851.827
235	760.44
240	817.053
245	758.667
250	955.28
255	691.893
260	544.507
265	605.12
270	616.733
275	697.347
280	735.96
285	849.573
290	798.187
295	596.8
300	891.413
305	988.027
310	930.64
315	1052.25
320	1116.87
325	1058.48
330	1468.09
335	1599.71
340	1673.32
345	1488.93
350	1457.55
355	1601.16

; Data for range 43
_DRIVE = COUPLED
_STEPTIME = 3
_STEPSIZE = 5
_STEPMODE = C
_START = 0
_THETA = 24.15
_2THETA = 48.3
_KHI = 70
_PHI = 0
_X = 10.5
_Y = -26
_Z = 0.5
_DETECTORSLIT = out
_TIMESTARTED = 3392.249
_KV = 30
_MA = 40
_RANGE_WL = 2.2897
_3DPLANE = 0
_V4_PSD2THETA = 9999
_V4_PSDCHANNEL1 = 0
_V4_PSDAPERTURE = 6.075
_V4_PSDTYPE = 5
_V4_PSDFIXED = 0
_V4_COUNTERS_MASK = 1
_V4_DRIVES_MASK = 0
_V4_ENCODERS_MASK = 0
_2THETACOUNTS = 1
; 2THETA	Cnt2_D1
0.000000	570.24
5.000000	600.48
10	545.72
15	409.96
20	582.2
25	345.44
30	299.68
35	601.92
40	545.16
45	190.4
50	291.64
55	259.88
60	306.12
65	457.36
70	406.6
75	366.84
80	271.08
85	236.32
90	372.56
95	310.8
100	247.04
105	428.28
110	310.52
115	422.76
120	468.0
125	566.24
130	694.48
135	791.72
140	1105.96
145	1318.2
150	1414.44
155	1419.68
160	1371.92
165	1337.16
170	1310.4
175	1260.64
180	913.88
185	905.12
190	1116.36
195	1205.6
200	1219.84
205	1199.08
210	1201.32
215	1045.56
220	946.8
225	934.04
230	832.28
235	774.52
240	895.76
245	931.0
250	717.24
255	798.48
260	709.72
265	585.96
270	728.2
275	1153.44
280	1069.68
285	1092.92
290	928.16
295	853.4
300	955.64
305	786.88
310	868.12
315	1030.36
320	934.6
325	980.84
330	929.08
335	956.32
340	742.56
345	863.8
350	772.04
355	595.28

; Data for range 46
_DRIVE = COUPLED
_STEPTIME = 3
_STEPSIZE = 5
_STEPMODE = C
_START = 0
_THETA = 24.15
_2THETA = 48.3
_KHI = 75
_PHI = 0
_X = 10.5
_Y = -26
_Z = 0.5
_DETECTORSLIT = out
_TIMESTARTED = 3633.58
_KV = 30
_MA = 40
_RANGE_WL = 2.2897
_3DPLANE = 0
_V4_PSD2THETA = 9999
_V4_PSDCHANNEL1 = 0
_V4_PSDAPERTURE = 6.075
_V4_PSDTYPE = 5
_V4_PSDFIXED = 0
_V4_COUNTERS_MASK = 1
_V4_DRIVES_MASK = 0
_V4_ENCODERS_MASK = 0
_2THETACOUNTS = 1
; 2THETA	Cnt2_D1
0.000000	130.933
5.000000	0
10	125.8
15	86.7333
20	137.667
25	169.6
30	192.533
35	281.467
40	355.4
45	162.333
50	74.2667
55	339.2
60	224.133
65	200.067
70	412.0
75	215.933
80	207.867
85	80.8
90	209.733
95	124.667
100	296.6
105	387.533
110	261.467
115	389.4
120	402.333
125	511.267
130	310.2
135	472.133
140	392.067
145	684.0
150	597.933
155	586.867
160	557.8
165	548.733
170	526.667
175	495.6
180	732.533
185	613.467
190	715.4
195	700.333
200	1350.27
205	1134.2
210	931.133
215	751.067
220	680.0
225	733.933
230	577.867
235	842.8
240	943.733
245	798.667
250	888.6
255	908.533
260	675.467
265	707.4
270	1018.33
275	1538.27
280	1467.2
285	1225.13
290	1260.07
295	1002.0
300	899.933
305	890.867
310	887.8
315	866.733
320	909.667
325	737.6
330	797.533
335	622.467
340	479.4
345	380.333
350	637.267
355	509.2

; Data for range 49
_DRIVE = COUPLED
_STEPTIME = 3
_STEPSIZE = 5
_STEPMODE = C
_START = 0
_THETA = 26.4
_2THETA = 52.8
_KHI = 0
_PHI = 0
_X = 10.5
_Y = -26
_Z = 0.5
_DETECTORSLIT = out
_TIMESTARTED = 3874.748
_KV = 30
_MA = 40
_RANGE_WL = 2.2897
_3DPLANE = 0
_V4_PSD2THETA = 9999
_V4_PSDCHANNEL1 = 0
_V4_PSDAPERTURE = 6.075
_V4_PSDTYPE = 5
_V4_PSDFIXED = 0
_V4_COUNTERS_MASK = 1
_V4_DRIVES_MASK = 0
_V4_ENCODERS_MASK = 0
_2THETACOUNTS = 1
; 2THETA	Cnt2_D1
0.000000	698.147
5.000000	941.293
10	800.44
15	702.587
20	615.733
25	718.88
30	786.027
35	711.173
40	813.32
45	759.467
50	680.613
55	788.76
60	812.907
65	779.053
70	791.2
75	602.347
80	820.493
85	538.64
90	723.787
95	639.933
100	961.08
105	590.227
110	839.373
115	793.52
120	618.667
125	666.813
130	776.96
135	859.107
140	1049.25
145	930.4
150	1043.55
155	1020.69
160	1426.84
165	1506.99
170	1583.13
175	1705.28
180	1604.43
185	1428.57
190	1666.72
195	1455.87
200	1187.01
205	1199.16
210	1156.31
215	1078.45
220	1007.6
225	851.747
230	1001.89
235	955.04
240	984.187
245	994.333
250	949.48
255	1153.63
260	897.773
265	1017.92
270	893.067
275	1172.21
280	986.36
285	1080.51
290	982.653
295	953.8
300	1043.95
305	960.093
310	1117.24
315	1074.39
320	1046.53
325	1048.68
330	1118.83
335	1082.97
340	1222.12
345	1007.27
350	1081.41
355	1238.56

; Data for range 52
_DRIVE = COUPLED
_STEPTIME = 3
_STEPSIZE = 5
_STEPMODE = C
_START = 0
_THETA = 26.4
_2THETA = 52.8
_KHI = 5
_PHI = 0
_X = 10.5
_Y = -26
_Z = 0.5
_DETECTORSLIT = out
_TIMESTARTED = 4145.778
_KV = 30
_MA = 40
_RANGE_WL = 2.2897
_3DPLANE = 0
_V4_PSD2THETA = 9999
_V4_PSDCHANNEL1 = 0
_V4_PSDAPERTURE = 6.075
_V4_PSDTYPE = 5
_V4_PSDFIXED = 0
_V4_COUNTERS_MASK = 1
_V4_DRIVES_MASK = 0
_V4_ENCODERS_MASK = 0
_2THETACOUNTS = 1
; 2THETA	Cnt2_D1
0.000000	781.573
5.000000	779.147
10	688.72
15	752.293
20	478.867
25	700.44
30	601.013
35	685.587
40	600.16
45	333.733
50	663.307
55	494.88
60	528.453
65	640.027
70	606.6
75	347.173
80	716.747
85	471.32
90	656.893
95	731.467
100	584.04
105	573.613
110	656.187
115	434.76
120	554.333
125	598.907
130	580.48
135	609.053
140	668.627
145	659.2
150	854.773
155	865.347
160	990.92
165	1208.49
170	1386.07
175	1332.64
180	1322.21
185	1374.79
190	1005.36
195	1032.93
200	758.507
205	852.08
210	830.653
215	1054.23
220	852.8
225	989.373
230	981.947
235	904.52
240	863.093
245	1011.67
250	1044.24
255	991.813
260	706.387
265	944.96
270	908.533
275	954.107
280	1129.68
285	892.253
290	1034.83
295	841.4
300	922.973
305	859.547
310	786.12
315	933.693
320	1128.27
325	950.84
330	968.413
335	1080.99
340	1083.56
345	1012.13
350	1084.71
355	1076.28

; Data for range 55
_DRIVE = COUPLED
_STEPTIME = 3
_STEPSIZE = 5
_STEPMODE = C
_START = 0
_THETA = 26.4
_2THETA = 52.8
_KHI = 10
_PHI = 0
_X = 10.5
_Y = -26
_Z = 0.5
_DETECTORSLIT = out
_TIMESTARTED = 4389.254
_KV = 30
_MA = 40
_RANGE_WL = 2.2897
_3DPLANE = 0
_V4_PSD2THETA = 9999
_V4_PSDCHANNEL1 = 0
_V4_PSDAPERTURE = 6.075
_V4_PSDTYPE = 5
_V4_PSDFIXED = 0
_V4_COUNTERS_MASK = 1
_V4_DRIVES_MASK = 0
_V4_ENCODERS_MASK = 0
_2THETACOUNTS = 1
; 2THETA	Cnt2_D1
0.000000	328.867
5.000000	461.733
10	599.6
15	430.467
20	407.333
25	299.2
30	400.067
35	631.933
40	368.8
45	531.667
50	469.533
55	469.4
60	386.267
65	518.133
70	723.0
75	654.867
80	560.733
85	682.6
90	684.467
95	615.333
100	621.2
105	571.067
110	568.933
115	467.8
120	509.667
125	568.533
130	626.4
135	705.267
140	397.133
145	632.0
150	666.867
155	695.733
160	894.6
165	1098.47
170	1137.33
175	1268.2
180	1413.07
185	1250.93
190	731.8
195	753.667
200	647.533
205	726.4
210	511.267
215	629.133
220	653.0
225	654.867
230	736.733
235	933.6
240	524.467
245	722.333
250	1027.2
255	691.067
260	668.933
265	902.8
270	789.667
275	935.533
280	749.4
285	697.267
290	893.133
295	642.0
300	589.867
305	661.733
310	617.6
315	417.467
320	590.333
325	659.2
330	670.067
335	479.933
340	675.8
345	677.667
350	552.533
355	714.4

; Data for range 58
_DRIVE = COUPLED
_STEPTIME = 3
_STEPSIZE = 5
_STEPMODE = C
_START = 0
_THETA = 26.4
_2THETA = 52.8
_KHI = 15
_PHI = 0
_X = 10.5
_Y = -26
_Z = 0.5
_DETECTORSLIT = out
_TIMESTARTED = 4631.318
_KV = 30
_MA = 40
_RANGE_WL = 2.2897
_3DPLANE = 0
_V4_PSD2THETA = 9999
_V4_PSDCHANNEL1 = 0
_V4_PSDAPERTURE = 6.075
_V4_PSDTYPE = 5
_V4_PSDFIXED = 0
_V4_COUNTERS_MASK = 1
_V4_DRIVES_MASK = 0
_V4_ENCODERS_MASK = 0
_2THETACOUNTS = 1
; 2THETA	Cnt2_D1
0.000000	456.893
5.000000	462.787
10	419.68
15	524.573
20	342.467
25	416.36
30	420.253
35	435.147
40	471.04
45	385.933
50	729.827
55	685.72
60	521.613
65	539.507
70	572.4
75	532.293
80	740.187
85	698.08
90	751.973
95	554.867
100	545.76
105	602.653
110	744.547
115	605.44
120	571.333
125	587.227
130	769.12
135	796.013
140	805.907
145	798.8
150	837.693
155	1031.59
160	1095.48
165	1256.37
170	1522.27
175	1315.16
180	1332.05
185	997.947
190	883.84
195	654.733
200	569.627
205	631.52
210	421.413
215	540.307
220	546.2
225	723.093
230	621.987
235	307.88
240	776.773
245	617.667
250	649.56
255	645.453
260	590.347
265	647.24
270	706.133
275	671.027
280	731.92
285	600.813
290	728.707
295	555.6
300	581.493
305	591.387
310	533.28
315	624.173
320	729.067
325	332.96
330	363.853
335	384.747
340	546.64
345	429.533
350	290.427
355	432.32

; Data for range 61
_DRIVE = COUPLED
_STEPTIME = 3
_STEPSIZE = 5
_STEPMODE = C
_START = 0
_THETA = 26.4
_2THETA = 52.8
_KHI = 20
_PHI = 0
_X = 10.5
_Y = -26
_Z = 0.5
_DETECTORSLIT = out
_TIMESTARTED = 4874.656
_KV = 30
_MA = 40
_RANGE_WL = 2.2897
_3DPLANE = 0
_V4_PSD2THETA = 9999
_V4_PSDCHANNEL1 = 0
_V4_PSDAPERTURE = 6.075
_V4_PSDTYPE = 5
_V4_PSDFIXED = 0
_V4_COUNTERS_MASK = 1
_V4_DRIVES_MASK = 0
_V4_ENCODERS_MASK = 0
_2THETACOUNTS = 1
; 2THETA	Cnt2_D1
0.000000	338.587
5.000000	366.173
10	280.76
15	233.347
20	260.933
25	226.52
30	178.107
35	162.693
40	190.28
45	203.867
50	270.453
55	300.04
60	158.627
65	283.213
70	463.8
75	256.387
80	282.973
85	536.56
90	366.147
95	422.733
100	421.32
105	470.907
110	426.493
115	382.08
120	496.667
125	423.253
130	665.84
135	495.427
140	565.013
145	767.6
150	934.187
155	1004.77
160	1267.36
165	1457.95
170	1422.53
175	1434.12
180	1360.71
185	1009.29
190	797.88
195	640.467
200	522.053
205	506.64
210	607.227
215	528.813
220	694.4
225	513.987
230	619.573
235	501.16
240	799.747
245	654.333
250	552.92
255	711.507
260	707.093
265	619.68
270	532.267
275	603.853
280	607.44
285	403.027
290	560.613
295	385.2
300	414.787
305	570.373
310	475.96
315	258.547
320	572.133
325	433.72
330	402.307
335	311.893
340	476.48
345	451.067
350	469.653
355	439.24

; Data for range 64
_DRIVE = COUPLED
_STEPTIME = 3
_STEPSIZE = 5
_STEPMODE = C
_START = 0
_THETA = 26.4
_2THETA = 52.8
_KHI = 25
_PHI = 0
_X = 10.5
_Y = -26
_Z = 0.5
_DETECTORSLIT = out
_TIMESTARTED = 5117.022
_KV = 30
_MA = 40
_RANGE_WL = 2.2897
_3DPLANE = 0
_V4_PSD2THETA = 9999
_V4_PSDCHANNEL1 = 0
_V4_PSDAPERTURE = 6.075
_V4_PSDTYPE = 5
_V4_PSDFIXED = 0
_V4_COUNTERS_MASK = 1
_V4_DRIVES_MASK = 0
_V4_ENCODERS_MASK = 0
_2THETACOUNTS = 1
; 2THETA	Cnt2_D1
0.000000	431.973
5.000000	354.947
10	335.92
15	225.893
20	198.867
25	197.84
30	224.813
35	240.787
40	205.76
45	45.7333
50	427.707
55	350.68
60	380.653
65	77.6267
70	8.6
75	212.573
80	244.547
85	108.52
90	329.493
95	306.467
100	245.44
105	400.413
110	305.387
115	205.36
120	599.333
125	460.307
130	542.28
135	709.253
140	608.227
145	686.2
150	929.173
155	1082.15
160	1241.12
165	1206.09
170	1585.07
175	1412.04
180	1163.01
185	1104.99
190	724.96
195	641.933
200	639.907
205	736.88
210	460.853
215	398.827
220	507.8
225	507.773
230	403.747
235	444.72
240	338.693
245	390.667
250	417.64
255	483.613
260	650.587
265	481.56
270	489.533
275	542.507
280	293.48
285	369.453
290	474.427
295	249.4
300	359.373
305	311.347
310	517.32
315	537.293
320	462.267
325	271.24
330	321.213
335	568.187
340	263.16
345	318.133
350	340.107
355	440.08

; Data for range 67
_DRIVE = COUPLED
_STEPTIME = 3
_STEPSIZE = 5
_STEPMODE = C
_START = 0
_THETA = 26.4
_2THETA = 52.8
_KHI = 30
_PHI = 0
_X = 10.5
_Y = -26
_Z = 0.5
_DETECTORSLIT = out
_TIMESTARTED = 5359.946
_KV = 30
_MA = 40
_RANGE_WL = 2.2897
_3DPLANE = 0
_V4_PSD2THETA = 9999
_V4_PSDCHANNEL1 = 0
_V4_PSDAPERTURE = 6.075
_V4_PSDTYPE = 5
_V4_PSDFIXED = 0
_V4_COUNTERS_MASK = 1
_V4_DRIVES_MASK = 0
_V4_ENCODERS_MASK = 0
_2THETACOUNTS = 1
; 2THETA	Cnt2_D1
0.000000	453.573
5.000000	339.147
10	148.72
15	226.293
20	258.867
25	198.44
30	51.0133
35	114.587
40	103.16
45	151.733
50	268.307
55	150.88
60	144.453
65	170.027
70	234.6
75	237.173
80	157.747
85	255.32
90	370.893
95	346.467
100	364.04
105	400.613
110	366.187
115	362.76
120	418.333
125	496.907
130	628.48
135	612.053
140	821.627
145	960.2
150	1191.77
155	1063.35
160	1421.92
165	1443.49
170	1469.07
175	1467.64
180	1431.21
185	1020.79
190	808.36
195	652.933
200	482.507
205	356.08
210	529.653
215	526.227
220	660.8
225	478.373
230	534.947
235	552.52
240	447.093
245	579.667
250	617.24
255	516.813
260	595.387
265	478.96
270	390.533
275	577.107
280	553.68
285	295.253
290	343.827
295	518.4
300	454.973
305	444.547
310	322.12
315	379.693
320	378.267
325	374.84
330	504.413
335	356.987
340	452.56
345	477.133
350	218.707
355	469.28

; Data for range 70
_DRIVE = COUPLED
_STEPTIME = 3
_STEPSIZE = 5
_STEPMODE = C
_START = 0
_THETA = 26.4
_2THETA = 52.8
_KHI = 35
_PHI = 0
_X = 10.5
_Y = -26
_Z = 0.5
_DETECTORSLIT = out
_TIMESTARTED = 5602.753
_KV = 30
_MA = 40
_RANGE_WL = 2.2897
_3DPLANE = 0
_V4_PSD2THETA = 9999
_V4_PSDCHANNEL1 = 0
_V4_PSDAPERTURE = 6.075
_V4_PSDTYPE = 5
_V4_PSDFIXED = 0
_V4_COUNTERS_MASK = 1
_V4_DRIVES_MASK = 0
_V4_ENCODERS_MASK = 0
_2THETACOUNTS = 1
; 2THETA	Cnt2_D1
0.000000	193.827
5.000000	190.653
10	247.48
15	118.307
20	121.133
25	293.96
30	212.787
35	73.6133
40	272.44
45	178.267
50	379.093
55	155.92
60	294.747
65	127.573
70	210.4
75	327.227
80	318.053
85	302.88
90	394.707
95	507.533
100	318.36
105	362.187
110	596.013
115	477.84
120	748.667
125	683.493
130	698.32
135	719.147
140	827.973
145	1121.8
150	1325.63
155	1429.45
160	1627.28
165	1523.11
170	1581.93
175	1562.76
180	1354.59
185	1139.41
190	864.24
195	657.067
200	473.893
205	701.72
210	523.547
215	671.373
220	689.2
225	590.027
230	628.853
235	462.68
240	666.507
245	636.333
250	619.16
255	446.987
260	554.813
265	532.64
270	539.467
275	545.293
280	525.12
285	496.947
290	381.773
295	429.6
300	494.427
305	662.253
310	337.08
315	609.907
320	478.733
325	472.56
330	408.387
335	360.213
340	598.04
345	414.867
350	516.693
355	613.52

; Data for range 73
_DRIVE = COUPLED
_STEPTIME = 3
_STEPSIZE = 5
_STEPMODE = C
_START = 0
_THETA = 26.4
_2THETA = 52.8
_KHI = 40
_PHI = 0
_X = 10.5
_Y = -26
_Z = 0.5
_DETECTORSLIT = out
_TIMESTARTED = 5845.274
_KV = 30
_MA = 40
_RANGE_WL = 2.2897
_3DPLANE = 0
_V4_PSD2THETA = 9999
_V4_PSDCHANNEL1 = 0
_V4_PSDAPERTURE = 6.075
_V4_PSDTYPE = 5
_V4_PSDFIXED = 0
_V4_COUNTERS_MASK = 1
_V4_DRIVES_MASK = 0
_V4_ENCODERS_MASK = 0
_2THETACOUNTS = 1
; 2THETA	Cnt2_D1
0.000000	63.04
5.000000	230.08
10	0
15	92.16
20	0
25	0
30	0
35	0
40	98.36
45	220.4
50	245.44
55	64.48
60	6.52
65	21.56
70	205.6
75	174.64
80	123.68
85	77.72
90	166.76
95	153.8
100	70.84
105	85.88
110	452.92
115	301.96
120	470.0
125	522.04
130	605.08
135	970.12
140	894.16
145	1297.2
150	1015.24
155	1366.28
160	1493.32
165	1534.36
170	1532.4
175	1468.44
180	1230.48
185	1044.52
190	912.56
195	691.6
200	541.64
205	569.68
210	730.72
215	545.76
220	689.8
225	510.84
230	591.88
235	685.92
240	616.96
245	528.0
250	572.04
255	569.08
260	528.12
265	480.16
270	471.2
275	538.24
280	459.28
285	745.32
290	570.36
295	524.4
300	415.44
305	244.48
310	492.52
315	456.56
320	356.6
325	397.64
330	470.68
335	398.72
340	526.76
345	222.8
350	324.84
355	506.88

; Data for range 76
_DRIVE = COUPLED
_STEPTIME = 3
_STEPSIZE = 5
_STEPMODE = C
_START = 0
_THETA = 26.4
_2THETA = 52.8
_KHI = 45
_PHI = 0
_X = 10.5
_Y = -26
_Z = 0.5
_DETECTORSLIT = out
_TIMESTARTED = 6087.237
_KV = 30
_MA = 40
_RANGE_WL = 2.2897
_3DPLANE = 0
_V4_PSD2THETA = 9999
_V4_PSDCHANNEL1 = 0
_V4_PSDAPERTURE = 6.075
_V4_PSDTYPE = 5
_V4_PSDFIXED = 0
_V4_COUNTERS_MASK = 1
_V4_DRIVES_MASK = 0
_V4_ENCODERS_MASK = 0
_2THETACOUNTS = 1
; 2THETA	Cnt2_D1
0.000000	201.8
5.000000	99.6
10	136.4
15	198.2
20	40.0
25	0
30	0
35	136.4
40	25.2
45	250.0
50	72.8
55	27.6
60	58.4
65	112.2
70	127.0
75	80.8
80	200.6
85	228.4
90	91.2
95	294.0
100	84.8
105	153.6
110	294.4
115	494.2
120	439.0
125	593.8
130	980.6
135	1053.4
140	1074.2
145	1186.0
150	1439.8
155	1379.6
160	1665.4
165	1713.2
170	1536.0
175	1503.8
180	1214.6
185	1059.4
190	1016.2
195	705.0
200	706.8
205	827.6
210	709.4
215	727.2
220	821.0
225	584.8
230	693.6
235	737.4
240	611.2
245	749.0
250	704.8
255	438.6
260	552.4
265	424.2
270	472.0
275	452.8
280	425.6
285	329.4
290	436.2
295	445.0
300	485.8
305	610.6
310	450.4
315	595.2
320	584.0
325	321.8
330	417.6
335	399.4
340	400.2
345	600.0
350	440.8
355	503.6

; Data for range 79
_DRIVE = COUPLED
_STEPTIME = 3
_STEPSIZE = 5
_STEPMODE = C
_START = 0
_THETA = 26.4
_2THETA = 52.8
_KHI = 50
_PHI = 0
_X = 10.5
_Y = -26
_Z = 0.5
_DETECTORSLIT = out
_TIMESTARTED = 6331.004
_KV = 30
_MA = 40
_RANGE_WL = 2.2897
_3DPLANE = 0
_V4_PSD2THETA = 9999
_V4_PSDCHANNEL1 = 0
_V4_PSDAPERTURE = 6.075
_V4_PSDTYPE = 5
_V4_PSDFIXED = 0
_V4_COUNTERS_MASK = 1
_V4_DRIVES_MASK = 0
_V4_ENCODERS_MASK = 0
_2THETACOUNTS = 1
; 2THETA	Cnt2_D1
0.000000	98.8933
5.000000	159.787
10	202.68
15	0
20	63.4667
25	116.36
30	187.253
35	144.147
40	115.04
45	110.933
50	258.827
55	10.72
60	0
65	34.5067
70	112.4
75	52.2933
80	103.187
85	176.08
90	158.973
95	202.867
100	249.76
105	407.653
110	427.547
115	591.44
120	649.333
125	728.227
130	901.12
135	970.013
140	1162.91
145	1154.8
150	1529.69
155	1406.59
160	1575.48
165	1628.37
170	1551.27
175	1273.16
180	1248.05
185	983.947
190	1025.84
195	764.733
200	707.627
205	737.52
210	777.413
215	743.307
220	849.2
225	876.093
230	688.987
235	778.88
240	855.773
245	712.667
250	663.56
255	778.453
260	586.347
265	539.24
270	498.133
275	375.027
280	298.92
285	317.813
290	331.707
295	333.6
300	258.493
305	321.387
310	174.28
315	159.173
320	256.067
325	239.96
330	103.853
335	272.747
340	202.64
345	226.533
350	205.427
355	360.32

; Data for range 82
_DRIVE = COUPLED
_STEPTIME = 3
_STEPSIZE = 5
_STEPMODE = C
_START = 0
_THETA = 26.4
_2THETA = 52.8
_KHI = 55
_PHI = 0
_X = 10.5
_Y = -26
_Z = 0.5
_DETECTORSLIT = out
_TIMESTARTED = 6573.854
_KV = 30
_MA = 40
_RANGE_WL = 2.2897
_3DPLANE = 0
_V4_PSD2THETA = 9999
_V4_PSDCHANNEL1 = 0
_V4_PSDAPERTURE = 6.075
_V4_PSDTYPE = 5
_V4_PSDFIXED = 0
_V4_COUNTERS_MASK = 1
_V4_DRIVES_MASK = 0
_V4_ENCODERS_MASK = 0
_2THETACOUNTS = 1
; 2THETA	Cnt2_D1
0.000000	292.84
5.000000	234.68
10	227.52
15	232.36
20	341.2
25	176.04
30	97.88
35	394.72
40	166.56
45	348.4
50	207.24
55	212.08
60	52.92
65	124.76
70	156.6
75	168.44
80	270.28
85	435.12
90	414.96
95	404.8
100	309.64
105	537.48
110	706.32
115	700.16
120	976.0
125	716.84
130	1156.68
135	1206.52
140	1411.36
145	1374.2
150	1458.04
155	1630.88
160	1642.72
165	1790.56
170	1519.4
175	1496.24
180	1293.08
185	928.92
190	975.76
195	843.6
200	869.44
205	878.28
210	883.12
215	752.96
220	857.8
225	943.64
230	834.48
235	926.32
240	969.16
245	965.0
250	994.84
255	1001.68
260	771.52
265	717.36
270	679.2
275	579.04
280	532.88
285	704.72
290	388.56
295	336.4
300	361.24
305	477.08
310	132.92
315	346.76
320	333.6
325	483.44
330	359.28
335	180.12
340	256.96
345	241.8
350	345.64
355	204.48

; Data for range 85
_DRIVE = COUPLED
_STEPTIME = 3
_STEPSIZE = 5
_STEPMODE = C
_START = 0
_THETA = 26.4
_2THETA = 52.8
_KHI = 60
_PHI = 0
_X = 10.5
_Y = -26
_Z = 0.5
_DETECTORSLIT = out
_TIMESTARTED = 6816.527
_KV = 30
_MA = 40
_RANGE_WL = 2.2897
_3DPLANE = 0
_V4_PSD2THETA = 9999
_V4_PSDCHANNEL1 = 0
_V4_PSDAPERTURE = 6.075
_V4_PSDTYPE = 5
_V4_PSDFIXED = 0
_V4_COUNTERS_MASK = 1
_V4_DRIVES_MASK = 0
_V4_ENCODERS_MASK = 0
_2THETACOUNTS = 1
; 2THETA	Cnt2_D1
0.000000	406.827
5.000000	303.653
10	252.48
15	184.307
20	185.133
25	63.96
30	75.7867
35	161.613
40	55.44
45	93.2667
50	156.093
55	166.92
60	198.747
65	202.573
70	147.4
75	81.2267
80	95.0533
85	180.88
90	139.707
95	267.533
100	564.36
105	540.187
110	736.013
115	667.84
120	910.667
125	870.493
130	1148.32
135	1245.15
140	1442.97
145	1517.8
150	1614.63
155	1762.45
160	1663.28
165	1530.11
170	1650.93
175	1391.76
180	1155.59
185	1202.41
190	920.24
195	748.067
200	947.893
205	1006.72
210	785.547
215	1006.37
220	919.2
225	895.027
230	968.853
235	975.68
240	1046.51
245	1233.33
250	1343.16
255	913.987
260	1061.81
265	848.64
270	833.467
275	823.293
280	624.12
285	696.947
290	508.773
295	568.6
300	430.427
305	533.253
310	367.08
315	376.907
320	516.733
325	440.56
330	514.387
335	202.213
340	463.04
345	575.867
350	427.693
355	310.52

; Data for range 88
_DRIVE = COUPLED
_STEPTIME = 3
_STEPSIZE = 5
_STEPMODE = C
_START = 0
_THETA = 26.4
_2THETA = 52.8
_KHI = 65
_PHI = 0
_X = 10.5
_Y = -26
_Z = 0.5
_DETECTORSLIT = out
_TIMESTARTED = 7059.251
_KV = 30
_MA = 40
_RANGE_WL = 2.2897
_3DPLANE = 0
_V4_PSD2THETA = 9999
_V4_PSDCHANNEL1 = 0
_V4_PSDAPERTURE = 6.075
_V4_PSDTYPE = 5
_V4_PSDFIXED = 0
_V4_COUNTERS_MASK = 1
_V4_DRIVES_MASK = 0
_V4_ENCODERS_MASK = 0
_2THETACOUNTS = 1
; 2THETA	Cnt2_D1
0.000000	80.84
5.000000	150.68
10	56.52
15	157.36
20	86.2
25	102.04
30	129.88
35	69.72
40	116.56
45	238.4
50	73.24
55	51.08
60	48.92
65	177.76
70	98.6
75	206.44
80	230.28
85	388.12
90	301.96
95	426.8
100	349.64
105	561.48
110	680.32
115	713.16
120	804.0
125	928.84
130	950.68
135	1269.52
140	1638.36
145	1486.2
150	1412.04
155	1475.88
160	1429.72
165	1379.56
170	1264.4
175	1137.24
180	1045.08
185	904.92
190	778.76
195	572.6
200	870.44
205	620.28
210	838.12
215	978.96
220	968.8
225	725.64
230	955.48
235	930.32
240	1040.16
245	1060.0
250	1156.84
255	1025.68
260	894.52
265	925.36
270	938.2
275	951.04
280	736.88
285	863.72
290	718.56
295	633.4
300	585.24
305	433.08
310	617.92
315	455.76
320	699.6
325	531.44
330	525.28
335	648.12
340	363.96
345	562.8
350	605.64
355	484.48

; Data for range 91
[...]
_TIMESTARTED = 15593.62
_KV = 30
_MA = 40
_RANGE_WL = 2.2897
_3DPLANE = 0
_V4_PSD2THETA = 9999
_V4_PSDCHANNEL1 = 0
_V4_PSDAPERTURE = 6.075
_V4_PSDTYPE = 5
_V4_PSDFIXED = 0
_V4_COUNTERS_MASK = 1
_V4_DRIVES_MASK = 0
_V4_ENCODERS_MASK = 0
_2THETACOUNTS = 1
; 2THETA	Cnt2_D1
0.000000	715.24
5.000000	748.48
10	816.72
15	594.96
20	733.2
25	672.44
30	665.68
35	701.92
40	759.16
45	687.4
50	682.64
55	652.88
60	509.12
65	819.36
70	632.6
75	680.84
80	634.08
85	648.32
90	846.56
95	658.8
100	769.04
105	558.28
110	799.52
115	703.76
120	695.0
125	972.24
130	762.48
135	620.72
140	543.96
145	749.2
150	857.44
155	702.68
160	788.92
165	688.16
170	748.4
175	940.64
180	871.88
185	675.12
190	733.36
195	776.6
200	902.84
205	812.08
210	813.32
215	692.56
220	856.8
225	777.04
230	837.28
235	722.52
240	760.76
245	683.0
250	720.24
255	630.48
260	640.72
265	678.96
270	649.2
275	771.44
280	682.68
285	660.92
290	651.16
295	682.4
300	541.64
305	623.88
310	625.12
315	513.36
320	784.6
325	920.84
330	677.08
335	632.32
340	814.56
345	672.8
350	806.04
355	601.28

; Data for range 196
_DRIVE = COUPLED
_STEPTIME = 3
_STEPSIZE = 5
_STEPMODE = C
_START = 0
_THETA = 45.11
_2THETA = 90.22
_KHI = 5
_PHI = 0
_X = 10.5
_Y = -26
_Z = 0.5
_DETECTORSLIT = out
_TIMESTARTED = 15863.33
_KV = 30
_MA = 40
_RANGE_WL = 2.2897
_3DPLANE = 0
_V4_PSD2THETA = 9999
_V4_PSDCHANNEL1 = 0
_V4_PSDAPERTURE = 6.075
_V4_PSDTYPE = 5
_V4_PSDFIXED = 0
_V4_COUNTERS_MASK = 1
_V4_DRIVES_MASK = 0
_V4_ENCODERS_MASK = 0
_2THETACOUNTS = 1
; 2THETA	Cnt2_D1
0.000000	658.72
5.000000	760.44
10	859.16
15	683.88
20	898.6
25	726.32
30	693.04
35	753.76
40	788.48
45	875.2
50	1011.92
55	823.64
60	757.36
65	826.08
70	698.8
75	735.52
80	727.24
85	661.96
90	720.68
95	865.4
100	795.12
105	718.84
110	557.56
115	665.28
120	545.0
125	785.72
130	828.44
135	780.16
140	692.88
145	799.6
150	641.32
155	638.04
160	655.76
165	719.48
170	672.2
175	683.92
180	705.64
185	614.36
190	737.08
195	742.8
200	716.52
205	586.24
210	745.96
215	685.68
220	669.4
225	806.12
230	697.84
235	756.56
240	644.28
245	684.0
250	764.72
255	440.44
260	633.16
265	761.88
270	844.6
275	507.32
280	617.04
285	507.76
290	696.48
295	671.2
300	795.92
305	680.64
310	892.36
315	664.08
320	644.8
325	776.52
330	671.24
335	741.96
340	770.68
345	828.4
350	718.12
355	777.84

; Data for range 199
_DRIVE = COUPLED
_STEPTIME = 3
_STEPSIZE = 5
_STEPMODE = C
_START = 0
_THETA = 45.11
_2THETA = 90.22
_KHI = 10
_PHI = 0
_X = 10.5
_Y = -26
_Z = 0.5
_DETECTORSLIT = out
_TIMESTARTED = 16104.73
_KV = 30
_MA = 40
_RANGE_WL = 2.2897
_3DPLANE = 0
_V4_PSD2THETA = 9999
_V4_PSDCHANNEL1 = 0
_V4_PSDAPERTURE = 6.075
_V4_PSDTYPE = 5
_V4_PSDFIXED = 0
_V4_COUNTERS_MASK = 1
_V4_DRIVES_MASK = 0
_V4_ENCODERS_MASK = 0
_2THETACOUNTS = 1
; 2THETA	Cnt2_D1
0.000000	998.96
5.000000	902.92
10	1022.88
15	836.84
20	1088.8
25	918.76
30	896.72
35	877.68
40	909.64
45	843.6
50	992.56
55	867.52
60	833.48
65	944.44
70	834.4
75	870.36
80	805.32
85	881.28
90	765.24
95	762.2
100	777.16
105	859.12
110	583.08
115	750.04
120	739.0
125	976.96
130	653.92
135	1119.88
140	720.84
145	686.8
150	857.76
155	881.72
160	834.68
165	811.64
170	976.6
175	997.56
180	970.52
185	910.48
190	773.44
195	764.4
200	718.36
205	845.32
210	789.28
215	768.24
220	767.2
225	580.16
230	762.12
235	478.08
240	582.04
245	694.0
250	454.96
255	573.92
260	538.88
265	472.84
270	603.8
275	582.76
280	698.72
285	539.68
290	663.64
295	548.6
300	552.56
305	634.52
310	768.48
315	681.44
320	659.4
325	838.36
330	719.32
335	715.28
340	798.24
345	756.2
350	822.16
355	812.12

; Data for range 202
_DRIVE = COUPLED
_STEPTIME = 3
_STEPSIZE = 5
_STEPMODE = C
_START = 0
_THETA = 45.11
_2THETA = 90.22
_KHI = 15
_PHI = 0
_X = 10.5
_Y = -26
_Z = 0.5
_DETECTORSLIT = out
_TIMESTARTED = 16346.31
_KV = 30
_MA = 40
_RANGE_WL = 2.2897
_3DPLANE = 0
_V4_PSD2THETA = 9999
_V4_PSDCHANNEL1 = 0
_V4_PSDAPERTURE = 6.075
_V4_PSDTYPE = 5
_V4_PSDFIXED = 0
_V4_COUNTERS_MASK = 1
_V4_DRIVES_MASK = 0
_V4_ENCODERS_MASK = 0
_2THETACOUNTS = 1
; 2THETA	Cnt2_D1
0.000000	1737.08
5.000000	1874.16
10	1810.24
15	1777.32
20	1864.4
25	1602.48
30	1583.56
35	1697.64
40	1536.72
45	1759.8
50	1553.88
55	1415.96
60	1272.04
65	1429.12
70	1328.2
75	1047.28
80	1188.36
85	1152.44
90	1242.52
95	1266.6
100	1289.68
105	1329.76
110	1386.84
115	1301.92
120	1373.0
125	1464.08
130	1375.16
135	1288.24
140	1722.32
145	1602.4
150	1693.48
155	1543.56
160	1856.64
165	1616.72
170	1687.8
175	1797.88
180	1533.96
185	1784.04
190	1720.12
195	1623.2
200	1563.28
205	1385.36
210	1477.44
215	1367.52
220	1193.6
225	1234.68
230	1131.76
235	1086.84
240	949.92
245	866.0
250	927.08
255	852.16
260	690.24
265	891.32
270	1002.4
275	874.48
280	988.56
285	900.64
290	762.72
295	933.8
300	982.88
305	1089.96
310	1124.04
315	1255.12
320	980.2
325	1083.28
330	1183.36
335	1324.44
340	1425.52
345	1392.6
350	1415.68
355	1416.76

; Data for range 205
_DRIVE = COUPLED
_STEPTIME = 3
_STEPSIZE = 5
_STEPMODE = C
_START = 0
_THETA = 45.11
_2THETA = 90.22
_KHI = 20
_PHI = 0
_X = 10.5
_Y = -26
_Z = 0.5
_DETECTORSLIT = out
_TIMESTARTED = 16588.6
_KV = 30
_MA = 40
_RANGE_WL = 2.2897
_3DPLANE = 0
_V4_PSD2THETA = 9999
_V4_PSDCHANNEL1 = 0
_V4_PSDAPERTURE = 6.075
_V4_PSDTYPE = 5
_V4_PSDFIXED = 0
_V4_COUNTERS_MASK = 1
_V4_DRIVES_MASK = 0
_V4_ENCODERS_MASK = 0
_2THETACOUNTS = 1
; 2THETA	Cnt2_D1
0.000000	2525.8
5.000000	2325.6
10	2564.4
15	2459.2
20	2378.0
25	2426.8
30	2387.6
35	2342.4
40	2230.2
45	2040.0
50	2184.8
55	1873.6
60	1797.4
65	1476.2
70	1623.0
75	1429.8
80	1388.6
85	1324.4
90	1355.2
95	1366.0
100	1607.8
105	1398.6
110	1458.4
115	1669.2
120	1563.0
125	2073.8
130	2041.6
135	2173.4
140	2464.2
145	2611.0
150	2657.8
155	2711.6
160	2857.4
165	2989.2
170	3094.0
175	3095.8
180	2935.6
185	3003.4
190	2843.2
195	2817.0
200	2506.8
205	2510.6
210	2266.4
215	2007.2
220	1833.0
225	1623.8
230	1562.6
235	1354.4
240	1136.2
245	1241.0
250	1133.8
255	1188.6
260	994.4
265	1018.2
270	996.0
275	1182.8
280	1057.6
285	1035.4
290	1127.2
295	1043.0
300	1215.8
305	1478.6
310	1462.4
315	1528.2
320	1674.0
325	1920.8
330	1837.6
335	1872.4
340	2022.2
345	2153.0
350	2371.8
355	2427.6

; Data for range 208
_DRIVE = COUPLED
_STEPTIME = 3
_STEPSIZE = 5
_STEPMODE = C
_START = 0
_THETA = 45.11
_2THETA = 90.22
_KHI = 25
_PHI = 0
_X = 10.5
_Y = -26
_Z = 0.5
_DETECTORSLIT = out
_TIMESTARTED = 16829.7
_KV = 30
_MA = 40
_RANGE_WL = 2.2897
_3DPLANE = 0
_V4_PSD2THETA = 9999
_V4_PSDCHANNEL1 = 0
_V4_PSDAPERTURE = 6.075
_V4_PSDTYPE = 5
_V4_PSDFIXED = 0
_V4_COUNTERS_MASK = 1
_V4_DRIVES_MASK = 0
_V4_ENCODERS_MASK = 0
_2THETACOUNTS = 1
; 2THETA	Cnt2_D1
0.000000	4365.56
5.000000	4401.12
10	4475.68
15	4506.24
20	4159.8
25	3852.36
30	3681.92
35	3377.48
40	3052.04
45	2722.6
50	2511.16
55	2346.72
60	2184.28
65	2160.84
70	1976.4
75	1743.96
80	1881.52
85	1835.08
90	1591.64
95	1655.2
100	1653.76
105	2011.32
110	1840.88
115	2080.44
120	2249.0
125	2303.56
130	2985.12
135	3158.68
140	3567.24
145	3848.8
150	4239.36
155	4909.92
160	5180.48
165	5231.04
170	5344.6
175	5244.16
180	5242.72
185	5222.28
190	5305.84
195	4781.4
200	4514.96
205	4082.52
210	3618.08
215	3412.64
220	2838.2
225	2358.76
230	1961.32
235	1901.88
240	1771.44
245	1468.0
250	1437.56
255	1313.12
260	1322.68
265	1202.24
270	1255.8
275	1234.36
280	1256.92
285	1384.48
290	1363.04
295	1397.6
300	1641.16
305	1769.72
310	1975.28
315	2142.84
320	2555.4
325	2547.96
330	3012.52
335	3203.08
340	3658.64
345	3836.2
350	4090.76
355	4273.32

; Data for range 211
_DRIVE = COUPLED
_STEPTIME = 3
_STEPSIZE = 5
_STEPMODE = C
_START = 0
_THETA = 45.11
_2THETA = 90.22
_KHI = 30
_PHI = 0
_X = 10.5
_Y = -26
_Z = 0.5
_DETECTORSLIT = out
_TIMESTARTED = 17071.99
_KV = 30
_MA = 40
_RANGE_WL = 2.2897
_3DPLANE = 0
_V4_PSD2THETA = 9999
_V4_PSDCHANNEL1 = 0
_V4_PSDAPERTURE = 6.075
_V4_PSDTYPE = 5
_V4_PSDFIXED = 0
_V4_COUNTERS_MASK = 1
_V4_DRIVES_MASK = 0
_V4_ENCODERS_MASK = 0
_2THETACOUNTS = 1
; 2THETA	Cnt2_D1
0.000000	6256.0
5.000000	5939.0
10	5802.0
15	5536.0
20	5170.0
25	4385.0
30	3984.0
35	3534.0
40	3078.0
45	2760.0
50	2560.0
55	2318.0
60	1957.0
65	2005.0
70	1861.0
75	1799.0
80	1801.0
85	1591.0
90	1627.0
95	1715.0
100	1635.0
105	1685.0
110	1825.0
115	2032.0
120	2259.0
125	2488.0
130	2627.0
135	3172.0
140	3588.0
145	3833.0
150	4267.0
155	4756.0
160	5215.0
165	5483.0
170	5976.0
175	5890.0
180	5973.0
185	5917.0
190	5732.0
195	5669.0
200	5435.0
205	4727.0
210	4251.0
215	3580.0
220	3289.0
225	2796.0
230	2399.0
235	1966.0
240	1919.0
245	1670.0
250	1633.0
255	1386.0
260	1471.0
265	1457.0
270	1359.0
275	1246.0
280	1532.0
285	1528.0
290	1522.0
295	1676.0
300	1754.0
305	2242.0
310	2398.0
315	2737.0
320	3104.0
325	3613.0
330	4066.0
335	4748.0
340	5132.0
345	5550.0
350	5964.0
355	6163.0

; Data for range 214
_DRIVE = COUPLED
_STEPTIME = 3
_STEPSIZE = 5
_STEPMODE = C
_START = 0
_THETA = 45.11
_2THETA = 90.22
_KHI = 35
_PHI = 0
_X = 10.5
_Y = -26
_Z = 0.5
_DETECTORSLIT = out
_TIMESTARTED = 17314.52
_KV = 30
_MA = 40
_RANGE_WL = 2.2897
_3DPLANE = 0
_V4_PSD2THETA = 9999
_V4_PSDCHANNEL1 = 0
_V4_PSDAPERTURE = 6.075
_V4_PSDTYPE = 5
_V4_PSDFIXED = 0
_V4_COUNTERS_MASK = 1
_V4_DRIVES_MASK = 0
_V4_ENCODERS_MASK = 0
_2THETACOUNTS = 1
; 2THETA	Cnt2_D1
0.000000	5039.72
5.000000	4793.44
10	4768.16
15	4253.88
20	3822.6
25	3600.32
30	3221.04
35	2723.76
40	2565.48
45	2445.2
50	2092.92
55	1965.64
60	1825.36
65	1724.08
70	1661.8
75	1547.52
80	1535.24
85	1435.96
90	1458.68
95	1421.4
100	1411.12
105	1429.84
110	1483.56
115	1661.28
120	1715.0
125	1911.72
130	2070.44
135	2239.16
140	2448.88
145	2655.6
150	2700.32
155	2930.04
160	3219.76
165	3397.48
170	3631.2
175	3718.92
180	3852.64
185	3997.36
190	3969.08
195	3830.8
200	3704.52
205	3298.24
210	3079.96
215	2840.68
220	2477.4
225	2206.12
230	2129.84
235	1920.56
240	1717.28
245	1450.0
250	1443.72
255	1280.44
260	1334.16
265	1388.88
270	1407.6
275	1200.32
280	1440.04
285	1350.76
290	1549.48
295	1576.2
300	1782.92
305	2013.64
310	2364.36
315	2638.08
320	2945.8
325	3177.52
330	3571.24
335	3999.96
340	4459.68
345	4566.4
350	4749.12
355	4626.84

; Data for range 217
_DRIVE = COUPLED
_STEPTIME = 3
_STEPSIZE = 5
_STEPMODE = C
_START = 0
_THETA = 45.11
_2THETA = 90.22
_KHI = 40
_PHI = 0
_X = 10.5
_Y = -26
_Z = 0.5
_DETECTORSLIT = out
_TIMESTARTED = 17555.66
_KV = 30
_MA = 40
_RANGE_WL = 2.2897
_3DPLANE = 0
_V4_PSD2THETA = 9999
_V4_PSDCHANNEL1 = 0
_V4_PSDAPERTURE = 6.075
_V4_PSDTYPE = 5
_V4_PSDFIXED = 0
_V4_COUNTERS_MASK = 1
_V4_DRIVES_MASK = 0
_V4_ENCODERS_MASK = 0
_2THETACOUNTS = 1
; 2THETA	Cnt2_D1
0.000000	2602.41
5.000000	2488.83
10	2347.24
15	2174.65
20	2153.07
25	1908.48
30	1708.89
35	1785.31
40	1627.72
45	1489.13
50	1471.55
55	1214.96
60	1226.37
65	1011.79
70	1051.2
75	945.613
80	798.027
85	884.44
90	910.853
95	859.267
100	928.68
105	946.093
110	829.507
115	1101.92
120	951.333
125	1206.75
130	1374.16
135	1486.57
140	1335.99
145	1574.4
150	1603.81
155	1601.23
160	1673.64
165	1846.05
170	1708.47
175	1752.88
180	1856.29
185	1974.71
190	2139.12
195	2252.53
200	2154.95
205	2044.36
210	1651.77
215	1702.19
220	1522.6
225	1389.01
230	1468.43
235	1177.84
240	1167.25
245	1121.67
250	1025.08
255	1033.49
260	893.907
265	994.32
270	930.733
275	849.147
280	958.56
285	908.973
290	972.387
295	1046.8
300	1124.21
305	1239.63
310	1307.04
315	1518.45
320	1587.87
325	1751.28
330	1842.69
335	2109.11
340	2200.52
345	2280.93
350	2356.35
355	2386.76

; Data for range 220
_DRIVE = COUPLED
_STEPTIME = 3
_STEPSIZE = 5
_STEPMODE = C
_START = 0
_THETA = 45.11
_2THETA = 90.22
_KHI = 45
_PHI = 0
_X = 10.5
_Y = -26
_Z = 0.5
_DETECTORSLIT = out
_TIMESTARTED = 17797.1
_KV = 30
_MA = 40
_RANGE_WL = 2.2897
_3DPLANE = 0
_V4_PSD2THETA = 9999
_V4_PSDCHANNEL1 = 0
_V4_PSDAPERTURE = 6.075
_V4_PSDTYPE = 5
_V4_PSDFIXED = 0
_V4_COUNTERS_MASK = 1
_V4_DRIVES_MASK = 0
_V4_ENCODERS_MASK = 0
_2THETACOUNTS = 1
; 2THETA	Cnt2_D1
0.000000	1554.77
5.000000	1408.55
10	1571.32
15	1274.09
20	1347.87
25	1357.64
30	1144.41
35	1063.19
40	731.96
45	690.733
50	837.507
55	761.28
60	718.053
65	545.827
70	663.6
75	538.373
80	660.147
85	419.92
90	689.693
95	697.467
100	457.24
105	885.013
110	730.787
115	585.56
120	880.333
125	1004.11
130	781.88
135	857.653
140	1013.43
145	1006.2
150	962.973
155	1109.75
160	804.52
165	845.293
170	884.067
175	906.84
180	923.613
185	1056.39
190	1023.16
195	1017.93
200	934.707
205	953.48
210	864.253
215	831.027
220	765.8
225	702.573
230	731.347
235	549.12
240	603.893
245	640.667
250	655.44
255	507.213
260	421.987
265	600.76
270	732.533
275	524.307
280	553.08
285	755.853
290	595.627
295	721.4
300	634.173
305	632.947
310	753.72
315	768.493
320	989.267
325	925.04
330	1021.81
335	1111.59
340	1171.36
345	1399.13
350	1330.91
355	1289.68

; Data for range 223
_DRIVE = COUPLED
_STEPTIME = 3
_STEPSIZE = 5
_STEPMODE = C
_START = 0
_THETA = 45.11
_2THETA = 90.22
_KHI = 50
_PHI = 0
_X = 10.5
_Y = -26
_Z = 0.5
_DETECTORSLIT = out
_TIMESTARTED = 18038.76
_KV = 30
_MA = 40
_RANGE_WL = 2.2897
_3DPLANE = 0
_V4_PSD2THETA = 9999
_V4_PSDCHANNEL1 = 0
_V4_PSDAPERTURE = 6.075
_V4_PSDTYPE = 5
_V4_PSDFIXED = 0
_V4_COUNTERS_MASK = 1
_V4_DRIVES_MASK = 0
_V4_ENCODERS_MASK = 0
_2THETACOUNTS = 1
; 2THETA	Cnt2_D1
0.000000	811.533
5.000000	866.067
10	897.6
15	963.133
20	752.667
25	513.2
30	521.733
35	569.267
40	506.8
45	429.333
50	430.867
55	344.4
60	464.933
65	448.467
70	482.0
75	157.533
80	419.067
85	320.6
90	386.133
95	309.667
100	462.2
105	405.733
110	689.267
115	609.8
120	688.333
125	761.867
130	729.4
135	736.933
140	937.467
145	1074.0
150	758.533
155	1071.07
160	731.6
165	622.133
170	382.667
175	540.2
180	407.733
185	468.267
190	588.8
195	636.333
200	513.867
205	553.4
210	409.933
215	422.467
220	485.0
225	482.533
230	444.067
235	393.6
240	476.133
245	552.667
250	505.2
255	395.733
260	420.267
265	592.8
270	425.333
275	422.867
280	592.4
285	546.933
290	559.467
295	564.0
300	435.533
305	518.067
310	372.6
315	422.133
320	591.667
325	707.2
330	550.733
335	541.267
340	802.8
345	917.333
350	949.867
355	929.4

; Data for range 226
_DRIVE = COUPLED
_STEPTIME = 3
_STEPSIZE = 5
_STEPMODE = C
_START = 0
_THETA = 45.11
_2THETA = 90.22
_KHI = 55
_PHI = 0
_X = 10.5
_Y = -26
_Z = 0.5
_DETECTORSLIT = out
_TIMESTARTED = 18281.93
_KV = 30
_MA = 40
_RANGE_WL = 2.2897
_3DPLANE = 0
_V4_PSD2THETA = 9999
_V4_PSDCHANNEL1 = 0
_V4_PSDAPERTURE = 6.075
_V4_PSDTYPE = 5
_V4_PSDFIXED = 0
_V4_COUNTERS_MASK = 1
_V4_DRIVES_MASK = 0
_V4_ENCODERS_MASK = 0
_2THETACOUNTS = 1
; 2THETA	Cnt2_D1
0.000000	578.947
5.000000	478.893
10	515.84
15	640.787
20	572.733
25	397.68
30	568.627
35	487.573
40	415.52
45	385.467
50	303.413
55	389.36
60	282.307
65	174.253
70	418.2
75	406.147
80	245.093
85	306.04
90	370.987
95	240.933
100	387.88
105	419.827
110	476.773
115	635.72
120	717.667
125	660.613
130	878.56
135	976.507
140	919.453
145	819.4
150	931.347
155	823.293
160	635.24
165	552.187
170	564.133
175	399.08
180	317.027
185	472.973
190	241.92
195	326.867
200	293.813
205	315.76
210	391.707
215	281.653
220	331.6
225	455.547
230	316.493
235	346.44
240	255.387
245	304.333
250	401.28
255	270.227
260	343.173
265	342.12
270	549.067
275	217.013
280	396.96
285	437.907
290	192.853
295	375.8
300	256.747
305	277.693
310	331.64
315	293.587
320	113.533
325	407.48
330	230.427
335	453.373
340	158.32
345	467.267
350	435.213
355	435.16

; Data for range 229
_DRIVE = COUPLED
_STEPTIME = 3
_STEPSIZE = 5
_STEPMODE = C
_START = 0
_THETA = 45.11
_2THETA = 90.22
_KHI = 60
_PHI = 0
_X = 10.5
_Y = -26
_Z = 0.5
_DETECTORSLIT = out
_TIMESTARTED = 18523.79
_KV = 30
_MA = 40
_RANGE_WL = 2.2897
_3DPLANE = 0
_V4_PSD2THETA = 9999
_V4_PSDCHANNEL1 = 0
_V4_PSDAPERTURE = 6.075
_V4_PSDTYPE = 5
_V4_PSDFIXED = 0
_V4_COUNTERS_MASK = 1
_V4_DRIVES_MASK = 0
_V4_ENCODERS_MASK = 0
_2THETACOUNTS = 1
; 2THETA	Cnt2_D1
0.000000	562.333
5.000000	506.667
10	579.0
15	555.333
20	357.667
25	450.0
30	417.333
35	347.667
40	274.0
45	351.333
50	325.667
55	335.0
60	105.333
65	340.667
70	386.0
75	176.333
80	381.667
85	181.0
90	303.333
95	207.667
100	479.0
105	534.333
110	573.667
115	775.0
120	735.333
125	747.667
130	873.0
135	1012.33
140	864.667
145	981.0
150	748.333
155	698.667
160	499.0
165	668.333
170	344.667
175	424.0
180	332.333
185	327.667
190	207.0
195	217.333
200	365.667
205	404.0
210	344.333
215	35.6667
220	85.0
225	52.3333
230	51.6667
235	0
240	116.333
245	220.667
250	76.0
255	11.3333
260	164.667
265	231.0
270	230.333
275	83.6667
280	170.0
285	224.333
290	257.667
295	126.0
300	199.333
305	0
310	25.0
315	0
320	0
325	9.0
330	23.3333
335	0
340	9.0
345	27.3333
350	63.6667
355	119.0

; Data for range 232
_DRIVE = COUPLED
_STEPTIME = 3
_STEPSIZE = 5
_STEPMODE = C
_START = 0
_THETA = 45.11
_2THETA = 90.22
_KHI = 65
_PHI = 0
_X = 10.5
_Y = -26
_Z = 0.5
_DETECTORSLIT = out
_TIMESTARTED = 18765.37
_KV = 30
_MA = 40
_RANGE_WL = 2.2897
_3DPLANE = 0
_V4_PSD2THETA = 9999
_V4_PSDCHANNEL1 = 0
_V4_PSDAPERTURE = 6.075
_V4_PSDTYPE = 5
_V4_PSDFIXED = 0
_V4_COUNTERS_MASK = 1
_V4_DRIVES_MASK = 0
_V4_ENCODERS_MASK = 0
_2THETACOUNTS = 1
; 2THETA	Cnt2_D1
0.000000	226.92
5.000000	342.84
10	412.76
15	282.68
20	300.6
25	371.52
30	389.44
35	285.36
40	234.28
45	119.2
50	161.12
55	197.04
60	160.96
65	101.88
70	173.8
75	231.72
80	126.64
85	302.56
90	397.48
95	340.4
100	444.32
105	475.24
110	507.16
115	793.08
120	856.0
125	985.92
130	923.84
135	928.76
140	932.68
145	950.6
150	803.52
155	752.44
160	806.36
165	543.28
170	347.2
175	320.12
180	322.04
185	355.96
190	234.88
195	254.8
200	279.72
205	399.64
210	267.56
215	373.48
220	310.4
225	97.32
230	158.24
235	173.16
240	134.08
245	171.0
250	16.92
255	321.84
260	254.76
265	378.68
270	200.6
275	468.52
280	242.44
285	187.36
290	170.28
295	248.2
300	174.12
305	315.04
310	0
315	55.88
320	0
325	69.72
330	0
335	70.56
340	31.48
345	18.4
350	231.32
355	249.24

; Data for range 235
_DRIVE = COUPLED
_STEPTIME = 3
_STEPSIZE = 5
_STEPMODE = C
_START = 0
_THETA = 45.11
_2THETA = 90.22
_KHI = 70
_PHI = 0
_X = 10.5
_Y = -26
_Z = 0.5
_DETECTORSLIT = out
_TIMESTARTED = 19007.92
_KV = 30
_MA = 40
_RANGE_WL = 2.2897
_3DPLANE = 0
_V4_PSD2THETA = 9999
_V4_PSDCHANNEL1 = 0
_V4_PSDAPERTURE = 6.075
_V4_PSDTYPE = 5
_V4_PSDFIXED = 0
_V4_COUNTERS_MASK = 1
_V4_DRIVES_MASK = 0
_V4_ENCODERS_MASK = 0
_2THETACOUNTS = 1
; 2THETA	Cnt2_D1
0.000000	250.147
5.000000	223.293
10	369.44
15	258.587
20	268.733
25	185.88
30	216.027
35	37.1733
40	34.32
45	0
50	65.6133
55	0
60	0
65	16.0533
70	0
75	30.3467
80	82.4933
85	206.64
90	102.787
95	158.933
100	98.08
105	385.227
110	479.373
115	569.52
120	734.667
125	901.813
130	734.96
135	696.107
140	888.253
145	737.4
150	830.547
155	547.693
160	470.84
165	360.987
170	346.133
175	112.28
180	316.427
185	322.573
190	258.72
195	380.867
200	296.013
205	283.16
210	332.307
215	367.453
220	189.6
225	308.747
230	159.893
235	144.04
240	299.187
245	225.333
250	230.48
255	135.627
260	298.773
265	318.92
270	398.067
275	250.213
280	320.36
285	311.507
290	231.653
295	149.8
300	137.947
305	125.093
310	156.24
315	135.387
320	53.5333
325	0
330	0
335	37.9733
340	0
345	70.2667
350	55.4133
355	0

; Data for range 238
_DRIVE = COUPLED
_STEPTIME = 3
_STEPSIZE = 5
_STEPMODE = C
_START = 0
_THETA = 45.11
_2THETA = 90.22
_KHI = 75
_PHI = 0
_X = 10.5
_Y = -26
_Z = 0.5
_DETECTORSLIT = out
_TIMESTARTED = 19250.55
_KV = 30
_MA = 40
_RANGE_WL = 2.2897
_3DPLANE = 0
_V4_PSD2THETA = 9999
_V4_PSDCHANNEL1 = 0
_V4_PSDAPERTURE = 6.075
_V4_PSDTYPE = 5
_V4_PSDFIXED = 0
_V4_COUNTERS_MASK = 1
_V4_DRIVES_MASK = 0
_V4_ENCODERS_MASK = 0
_2THETACOUNTS = 1
; 2THETA	Cnt2_D1
0.000000	178.533
5.000000	251.067
10	234.6
15	462.133
20	288.667
25	298.2
30	216.733
35	102.267
40	39.8
45	224.333
50	95.8667
55	87.4
60	18.9333
65	56.4667
70	47.0
75	99.5333
80	87.0667
85	75.6
90	225.133
95	349.667
100	132.2
105	396.733
110	641.267
115	649.8
120	830.333
125	794.867
130	799.4
135	822.933
140	905.467
145	909.0
150	810.533
155	799.067
160	558.6
165	480.133
170	406.667
175	380.2
180	532.733
185	553.267
190	520.8
195	379.333
200	510.867
205	376.4
210	240.933
215	536.467
220	396.0
225	277.533
230	286.067
235	252.6
240	137.133
245	72.6667
250	319.2
255	496.733
260	650.267
265	541.8
270	623.333
275	529.867
280	439.4
285	563.933
290	397.467
295	472.0
300	315.533
305	383.067
310	210.6
315	162.133
320	115.667
325	45.2
330	89.7333
335	52.2667
340	22.8
345	11.3333
350	0
355	71.4